Latitude (Deg), Longitude (Deg), GPS Altitude (m), N Velocity(m/s), E Velocity(m/s), D Velocity(m/s), Velocity(m/s), Ground Speed(m/s), AccelerometerX(g), AccelerometerY(g), AccelerometerZ(g), GyroX(rad/s), GyroY(rad/s), GyroZ(rad/s), Barometric Alt(m), QuaternionX, QuaternionY, QuaternionZ, QuaternionW, Roll(deg), Pitch(deg), Yaw(deg), MagneticX, MagneticY, MagneticZ, Satellites, Sequence(135 Hz) ,
36.16374815,140.0520556,56.55710983,0.00013046,0.000427551,-5.88E-39,0.000447012,0.000447012,0.003210681,-0.017407332,-1.009211063,0.000160061,0.001629924,0.003520411,56.55710983,0.004018242,0.006765201,0.819419444,0.573140323,0.899186328,0.067011337,110.05904,0.013197958,0.038551733,-0.087581635,6,6234, 
36.16374815,140.0520556,56.55710983,0.000171277,0.000458062,-5.88E-39,0.000489036,0.000489036,0.002327863,-0.016998593,-1.008905411,-1.61E-05,0.00135374,0.000525503,56.55710983,0.00402282,0.006765353,0.819375694,0.573202848,0.899496287,0.066660105,110.0502925,0.008163318,0.006102197,-0.091856003,6,6237, 
36.16374815,140.0520556,56.56744385,0.00017166,0.000415313,-5.88E-39,0.000449391,0.000449391,0.000837761,-0.016336955,-1.00812602,-0.00089461,0.001805707,-0.002601628,56.56744385,0.004026412,0.006764584,0.819327652,0.573271692,0.899654329,0.066347757,110.0406701,7.67E-05,-0.008549739,-0.082668304,6,6240, 
36.16374815,140.0520556,56.56744385,0.000129255,0.000320169,-5.88E-39,0.000345276,0.000345276,-0.000457372,-0.015728222,-1.007049799,-0.002306313,0.002425671,-0.005001343,56.56744385,0.004027219,0.006762263,0.819275558,0.573346138,0.899483441,0.066201331,110.0302564,-0.00848107,-0.019028708,-0.069766045,6,6243, 
36.16374815,140.0520556,56.56744385,5.10E-05,0.000207241,-5.88E-39,0.000213422,0.000213422,-0.000950227,-0.015357344,-1.006312966,-0.003604809,0.002907992,-0.00657206,56.56744385,0.004024921,0.006757976,0.819220543,0.573424578,0.898923773,0.0662215,110.0192769,-0.015653029,-0.022585612,-0.060935974,6,6246, 
36.16374815,140.0520556,56.56744385,-3.75E-05,0.00010904,-5.88E-39,0.000115299,0.000115299,-0.000579445,-0.015189076,-1.006218672,-0.004209377,0.003107572,-0.007284735,56.56744385,0.004020543,0.006752244,0.819164157,0.573505461,0.898091179,0.06634441,110.0079786,-0.017692342,-0.019640204,-0.060058594,6,6249, 
36.16374815,140.0520556,56.76063538,-0.000123095,4.15E-05,-5.88E-39,0.000129908,0.000129908,0.000197854,-0.014843013,-1.007051587,-0.00397832,0.003220606,-0.00672135,56.76063538,0.004015574,0.006746352,0.819107413,0.573586464,0.897205059,0.066512356,109.9966459,-0.017124556,-0.013504051,-0.069030762,6,6252, 
36.16374815,140.0520556,56.76063538,-0.000204486,2.46E-06,-0.000344619,0.000400728,0.000204501,0.000884794,-0.014147139,-1.008400917,-0.002921645,0.003332658,-0.004652857,56.76063538,0.004011323,0.00674193,0.819052637,0.573664725,0.896504173,0.066706409,109.9857002,-0.016278282,-0.007812541,-0.082921982,6,6255, 
36.16374815,140.0520556,56.76063538,-0.000262438,-2.52E-05,-0.000758052,0.000802592,0.000263649,0.000974181,-0.013526624,-1.009492636,-0.001533837,0.003553374,-0.001209004,56.76063538,0.004008531,0.006740224,0.819001794,0.573737383,0.89615451,0.066935706,109.9755395,-0.011590466,-0.005539261,-0.09381827,6,6258, 
36.16374815,140.0520556,56.76063538,-0.000273392,-5.51E-05,-0.001225241,0.00125658,0.000278887,0.000563772,-0.013444879,-1.009265184,-0.00026754,0.003931598,0.002976672,56.76063919,0.004007096,0.006741627,0.818956435,0.573802233,0.89618646,0.067233567,109.9664729,-0.002190724,-0.00597034,-0.091548085,6,6261, 
36.16374815,140.0520556,56.75650024,-0.000239879,-7.43E-05,-0.001641916,0.001661008,0.000251122,0.000325251,-0.013912721,-1.007690668,0.000346912,0.004154697,0.006715178,56.76063156,0.004006463,0.006745347,0.818916619,0.573858857,0.896489399,0.067599616,109.9585435,0.006702662,-0.003841624,-0.075743318,6,6264, 
36.16374815,140.0520556,56.75650024,-0.00019299,-6.96E-05,-0.001980213,0.001990812,0.000205156,0.000678049,-0.014634072,-1.005885005,0.000448152,0.004040754,0.009724917,56.76062393,0.004006291,0.006749846,0.81888175,0.573908567,0.896896138,0.067966077,109.9515884,0.009377837,0.000939935,-0.058040116,6,6267, 
36.16374815,140.0520556,56.75650024,-0.000160791,-4.29E-05,-0.002230742,0.00223694,0.000166407,0.001429386,-0.015229033,-1.005298018,0.000220766,0.00359648,0.011623967,56.76062012,0.004006644,0.006753791,0.818850398,0.573953271,0.897285882,0.068241427,109.9453337,0.00643979,0.005346328,-0.053084735,6,6270, 
36.16374815,140.0520556,56.75650024,-0.000134728,-1.66E-06,-0.002457243,0.002460934,0.000134738,0.002035992,-0.015850142,-1.006192088,-0.000423594,0.002806909,0.012462821,56.7606163,0.004007659,0.006755946,0.818821013,0.573995173,0.897551411,0.068333804,109.9394697,0.00521259,0.008240797,-0.062894188,6,6273, 
36.16374815,140.0520556,56.77613068,-9.96E-05,2.86E-05,-0.002915994,0.002917837,0.000103678,0.002085584,-0.016641242,-1.008087397,-0.001032831,0.002336121,0.012115913,56.76068115,0.004009072,0.006755912,0.818791926,0.574036598,0.897637655,0.068244449,109.9336686,0.007017076,0.006061785,-0.08267054,6,6276, 
36.16374815,140.0520556,56.77613068,-4.77E-05,4.10E-05,-0.003468295,0.003468865,6.29E-05,0.001651071,-0.017429531,-1.010062933,-0.000997772,0.00240477,0.011109298,56.76074982,0.004010475,0.00675501,0.818762004,0.574079454,0.897641665,0.068100399,109.9276779,0.010387689,0.002472185,-0.10217832,6,6279, 
36.16374815,140.0520556,56.77613068,3.48E-05,6.29E-05,-0.004112802,0.00411343,7.19E-05,0.001205066,-0.018030085,-1.011012435,-0.000766382,0.002696401,0.008993312,56.7608223,0.004011675,0.006754654,0.818729758,0.574125409,0.897683457,0.068014756,109.9212438,0.016491622,0.004383944,-0.110067129,6,6282, 
36.16374815,140.0520556,56.77613068,0.000131804,9.56E-05,-0.004791508,0.004794274,0.000162831,0.000969864,-0.018220492,-1.010251522,-0.000840024,0.00300997,0.006150817,56.76089478,0.004012329,0.00675492,0.818693936,0.574176431,0.897747207,0.068026875,109.9141,0.019409955,0.006537005,-0.10142079,6,6285, 
36.16374815,140.0520556,56.73997116,0.000205494,0.000130475,-0.005085631,0.005091453,0.000243416,0.001058622,-0.018131321,-1.008702993,-0.001231929,0.002814312,0.002681681,56.76084518,0.004012476,0.006754826,0.818653584,0.574233949,0.897743335,0.068069988,109.9060487,0.014737964,0.006972797,-0.085755073,6,6288, 
36.16374815,140.0520556,56.73997116,0.000247267,0.000157052,-0.005307226,0.005315303,0.000292927,0.001342616,-0.017950337,-1.007606506,-0.001923938,0.002266424,-0.000603514,56.76079941,0.004012551,0.006753124,0.818608403,0.574298382,0.897583164,0.068021608,109.8970302,0.008354545,0.005315319,-0.075704515,6,6291, 
36.16374815,140.0520556,56.73997116,0.000256757,0.000164069,-0.005484258,0.005492716,0.000304701,0.001583581,-0.017524874,-1.007481813,-0.002690806,0.001488713,-0.003624284,56.76075363,0.004012882,0.00674901,0.818558693,0.574369252,0.897213148,0.06779747,109.8871082,0.001897991,0.001403436,-0.075805239,6,6294, 
36.16374815,140.0520556,56.73997116,0.000228686,0.000145138,-0.005667299,0.005673768,0.000270855,0.001617789,-0.016717125,-1.007974148,-0.003262028,0.001220694,-0.005892653,56.76070786,0.004013278,0.006742803,0.818505168,0.574445546,0.896650706,0.067435389,109.8764251,-0.005614102,-0.003786232,-0.081496775,6,6297, 
36.16374815,140.0520556,56.73273849,0.000160562,0.000106984,-0.005816808,0.005820006,0.000192939,0.00139207,-0.01561716,-1.008374929,-0.003394123,0.001374682,-0.006883489,56.76063919,0.004013258,0.006735812,0.818449438,0.574525237,0.895987112,0.067064159,109.865278,-0.013624892,-0.00763068,-0.084802568,6,6300, 
36.16374815,140.0520556,56.73273849,6.61E-05,7.24E-05,-0.005990034,0.005990836,9.80E-05,0.001191402,-0.014516429,-1.008124352,-0.003029961,0.001730942,-0.00684518,56.76057434,0.004012875,0.006729429,0.818392813,0.574605763,0.895356661,0.066767958,109.8539944,-0.018890686,-0.006920185,-0.080617063,6,6303, 
36.16374815,140.0520556,56.73273849,-3.51E-05,5.36E-05,-0.006149329,0.006149663,6.41E-05,0.001269462,-0.013706965,-1.007333994,-0.00218721,0.002019008,-0.005882272,56.76050949,0.004012709,0.006724739,0.818337023,0.574685335,0.894899354,0.066561772,109.842856,-0.020235136,-0.00375504,-0.071865827,6,6306, 
36.16374815,140.0520556,56.73273849,-0.000132394,5.68E-05,-0.00627171,0.006273365,0.000144075,0.001606435,-0.013178048,-1.006815434,-0.001461256,0.002023404,-0.004308978,56.76044464,0.004013392,0.006721852,0.818283021,0.574762285,0.894667408,0.066391679,109.8320818,-0.019465208,0.0006442,-0.066601679,6,6309, 
36.16374815,140.0520556,56.75030136,-0.000229775,6.83E-05,-0.006537767,0.00654216,0.000239723,0.001945069,-0.012849365,-1.006850958,-0.000918244,0.002045695,-0.002229483,56.76044083,0.004014991,0.006720265,0.818231583,0.574835539,0.894617906,0.066217304,109.8218229,-0.01947619,0.002302624,-0.067616016,6,6312, 
36.16374815,140.0520556,56.75030136,-0.000332919,7.86E-05,-0.006810176,0.006818762,0.000342074,0.00207506,-0.012737864,-1.007579684,-0.000625276,0.00199362,0.000322752,56.76044083,0.00401726,0.006719487,0.818183362,0.574903965,0.894689031,0.066028127,109.8122288,-0.020628951,0.002053179,-0.075170174,6,6315, 
36.16374815,140.0520556,56.75030136,-0.000425776,8.12E-05,-0.007121543,0.007134722,0.000433449,0.001879329,-0.012929267,-1.008601665,-0.000501645,0.002197009,0.002925353,56.76044083,0.00401972,0.00671922,0.818139076,0.574967265,0.894820823,0.065849081,109.8033745,-0.018571287,0.000517681,-0.085299335,6,6318, 
36.16374815,140.0520556,56.75030136,-0.000501256,7.22E-05,-0.00748459,0.007501703,0.000506424,0.001444221,-0.013291852,-1.009094477,-0.000478595,0.002329961,0.005519582,56.76044083,0.004021985,0.006719318,0.818098366,0.575025082,0.894974662,0.065706414,109.7952704,-0.015096053,-0.001806993,-0.08983431,6,6321, 
36.16374815,140.0520556,56.60463333,-0.000555452,5.28E-05,-0.006516538,0.006540381,0.000557958,0.001010219,-0.013721504,-1.00859344,-0.000538529,0.002557685,0.007631681,56.75994873,0.004023895,0.006719614,0.818061054,0.57507813,0.895124024,0.065604955,109.7878375,-0.010839164,-0.003867522,-0.084644735,6,6324, 
36.16374815,140.0520556,56.60463333,-0.000581209,3.49E-05,-0.005566203,0.005596574,0.000582254,0.00084158,-0.014410506,-1.007571697,-0.000487084,0.002750128,0.008753026,56.75945663,0.004025397,0.006720188,0.818026066,0.57512784,0.895272845,0.065556358,109.7808711,-0.00515148,-0.003591124,-0.074629016,6,6327, 
36.16374815,140.0520556,56.60463333,-0.000580867,3.40E-05,-0.004608187,0.004644777,0.000581859,0.000973801,-0.01526279,-1.006718755,-9.35E-05,0.003218055,0.00900345,56.75895691,0.004026557,0.006721685,0.817992091,0.575176179,0.895485714,0.065599244,109.7741008,6.84E-05,-0.000182576,-0.066218287,6,6330, 
36.16374815,140.0520556,56.60463333,-0.000556633,6.24E-05,-0.003649309,0.003692044,0.000560115,0.001246642,-0.015986076,-1.006719112,-2.55E-05,0.003399614,0.008543745,56.75845337,0.004027383,0.006724122,0.817957938,0.575224698,0.895764748,0.065735599,109.7673026,0.004846841,0.005681157,-0.065774433,6,6333, 
36.16374815,140.0520556,56.66662216,-0.000527624,0.00010851,-0.003304644,0.003348258,0.000538666,0.001561784,-0.016447596,-1.007726669,-0.000219613,0.00358298,0.007627264,56.75815964,0.004027735,0.0067267,0.817922831,0.575274646,0.896025514,0.065927275,109.760308,0.005801797,0.009229824,-0.07562051,6,6336, 
36.16374815,140.0520556,56.66662216,-0.00051017,0.000148908,-0.003029665,0.003075925,0.000531458,0.001684347,-0.016658861,-1.009286404,-0.000818525,0.003663093,0.006066253,56.75786209,0.004027227,0.00672867,0.817885935,0.575327098,0.896172478,0.066162198,109.7529611,0.003490701,0.008079529,-0.091375262,6,6339, 
36.16374815,140.0520556,56.66662216,-0.0005138,0.000174087,-0.002853158,0.002904274,0.000542491,0.001567665,-0.016639335,-1.010280371,-0.001268659,0.00367711,0.004147125,56.75756836,0.00402584,0.006729653,0.817846417,0.575383067,0.89616867,0.066418379,109.7451117,-0.000725925,0.005035892,-0.101091705,6,6342, 
36.16374815,140.0520556,56.66662216,-0.000535592,0.000174942,-0.002744261,0.002801505,0.000563439,0.001328287,-0.016414728,-1.010208368,-0.001411146,0.003931995,0.002294397,56.75727463,0.004023721,0.006730243,0.817804337,0.57544297,0.896079381,0.066721479,109.736725,-0.004358485,0.000170879,-0.100618452,6,6345, 
36.16374815,140.0520556,56.5064888,-0.000552437,0.000172564,-0.001162165,0.001298304,0.000578762,0.001150606,-0.016284673,-1.00952816,-0.001299685,0.004225859,0.000516851,56.75643539,0.004020989,0.006731216,0.817759633,0.575506568,0.895985185,0.067111337,109.7278197,-0.003368974,-0.000475496,-0.093594678,6,6348, 
36.16374815,140.0520556,56.5064888,-0.000553135,0.000183781,0.000390173,0.000701405,0.000582867,0.001138957,-0.01638291,-1.008918047,-0.001257787,0.004073843,-0.001153483,56.75559235,0.004018195,0.006732467,0.817712367,0.575573683,0.895912545,0.067529196,109.718416,-0.000139609,0.002243295,-0.086920425,6,6351, 
36.16374835,140.0520557,56.5064888,-0.006629486,0.000201935,0.001912934,0.006902911,0.006632561,0.001214999,-0.016426902,-1.008606911,-0.001423744,0.003714924,-0.002675595,56.75474167,0.004015714,0.006733306,0.817662835,0.575644076,0.895821712,0.067894086,109.7085552,0.001729593,0.001602545,-0.084481813,6,6354, 
36.16374835,140.0520557,56.5064888,-0.006633929,0.000192336,0.003386826,0.007450946,0.006636717,0.001286016,-0.016161576,-1.008544922,-0.001812186,0.003371026,-0.003458171,56.75388718,0.004013533,0.006733085,0.817611635,0.575716794,0.895651128,0.068163505,109.6983658,-0.000888646,-0.001919873,-0.084969141,6,6357, 
36.16374835,140.0520557,56.71931076,-0.006659023,0.000172796,0.00281978,0.007233505,0.006661264,0.001291452,-0.015740575,-1.008537769,-0.002401517,0.00289014,-0.00351816,56.75375366,0.004011485,0.006731276,0.817559838,0.575790405,0.89534039,0.068316653,109.6880522,-0.005018666,-0.003907926,-0.085016824,6,6360, 
36.16374835,140.0520557,56.71931076,-0.006700947,0.000144049,0.002257487,0.00707246,0.006702495,0.001276994,-0.015312987,-1.008478642,-0.002652836,0.002446713,-0.003032175,56.75362015,0.004009782,0.006727941,0.81750834,0.57586354,0.894909433,0.068336233,109.6778019,-0.008384839,-0.005749382,-0.084547617,6,6363, 
36.16374835,140.0520557,56.71931076,-0.006747054,0.000110467,0.001702415,0.006959394,0.006747959,0.001248757,-0.014949174,-1.008230686,-0.002558229,0.001860073,-0.001538655,56.75349045,0.004009035,0.006723695,0.817458272,0.575934649,0.894456428,0.068203736,109.6678347,-0.009221524,-0.006716482,-0.082236864,6,6366, 
36.16374835,140.0520557,56.71931076,-0.0067766,7.67E-05,0.001163639,0.006876209,0.006777034,0.001188626,-0.014688945,-1.007841587,-0.002078786,0.001582247,0.000219151,56.75336838,0.004009613,0.006719396,0.817410529,0.576002479,0.894086237,0.067940077,109.658327,-0.005909085,-0.006750058,-0.078694917,6,6369, 
36.16374835,140.0520557,56.63149643,-0.00678848,4.44E-05,0.001463826,0.006944654,0.006788625,0.001008047,-0.014500974,-1.007614136,-0.001485461,0.001249283,0.002005823,56.75294495,0.004011618,0.006715736,0.817365348,0.576066673,0.893870401,0.067580845,109.6493284,-0.00237596,-0.006465107,-0.07622204,6,6372, 
36.16374835,140.0520557,56.63149643,-0.006780566,1.06E-05,0.001755044,0.007004025,0.006780574,0.000710716,-0.014620459,-1.007707596,-0.0009157,0.000992837,0.003459188,56.75252533,0.004015091,0.006712824,0.817322493,0.57612747,0.893821819,0.067129815,109.6408009,0.001582652,-0.006760746,-0.076732256,6,6375, 
36.16374835,140.0520557,56.63149643,-0.006745909,-3.52E-05,0.002023053,0.007042817,0.006746001,0.000351757,-0.015116377,-1.008236289,-0.00020761,0.001474354,0.004890065,56.75210571,0.004019279,0.006711363,0.817281663,0.576185346,0.893956813,0.066704509,109.6326811,0.006931379,-0.009152927,-0.082203485,6,6378, 
36.16374835,140.0520557,56.63149643,-0.006680053,-6.86E-05,0.002243724,0.007047135,0.006680405,7.36E-06,-0.015802067,-1.008883834,0.00012241,0.002367025,0.006210483,56.7516861,0.004022834,0.006711938,0.817242742,0.576240361,0.894241021,0.066469693,109.6249567,0.013171345,-0.0066926,-0.087323762,6,6381, 
36.16374835,140.0520557,56.3845787,-0.006597354,-7.93E-05,0.004715859,0.008109913,0.00659783,-0.000233272,-0.016379293,-1.009301305,-3.27E-05,0.002942614,0.00728923,56.75042725,0.004025038,0.006713738,0.817205787,0.576292992,0.894550729,0.066439747,109.6175872,0.016539827,-0.002131388,-0.089424707,6,6384, 
36.16374835,140.0520557,56.3845787,-0.006516784,-9.50E-05,0.007086378,0.009627785,0.006517476,-0.000326323,-0.016763367,-1.009167194,-0.000359289,0.003248762,0.007832561,56.74916077,0.004026008,0.006715671,0.817169726,0.576343894,0.894791797,0.066532328,109.6104395,0.016113892,-0.003134634,-0.088050462,6,6387, 
36.16374835,140.0520557,56.3845787,-0.006442566,-0.000121465,0.00937541,0.011376279,0.006443711,-0.000176713,-0.016961094,-1.008531809,-0.000704231,0.003614544,0.007510521,56.74788666,0.004025812,0.006717403,0.817134023,0.576394677,0.894936793,0.066720623,109.6033272,0.014843568,-0.005298883,-0.082932092,6,6390, 
36.16374835,140.0520557,56.3845787,-0.006386879,-0.000138791,0.011604291,0.013246549,0.006388387,0.00021096,-0.016925652,-1.007963657,-0.001333477,0.004004342,0.006569946,56.74660492,0.004024134,0.00671869,0.817097306,0.576446652,0.894942166,0.06701974,109.5960372,0.0111375,-0.003465243,-0.077612497,6,6393, 
36.16374835,140.0520557,56.38148117,-0.006369851,-0.000143595,0.013805409,0.015204767,0.006371469,0.000628201,-0.016636558,-1.00765419,-0.001915565,0.003873268,0.005221399,56.74530792,0.0040213,0.006718937,0.81705898,0.576501012,0.894773695,0.06736093,109.5884179,0.003405675,-0.000960827,-0.074138261,6,6396, 
36.16374835,140.0520557,56.38148117,-0.00638134,-0.000157855,0.015942311,0.01717276,0.006383292,0.000884095,-0.016299982,-1.007565141,-0.00231268,0.003693815,0.003725227,56.7440033,0.004018055,0.006717976,0.817018628,0.576558232,0.894464558,0.067663833,109.5803963,-0.002297923,-0.002851941,-0.07404194,6,6399, 
36.16374835,140.0520557,56.38148117,-0.006413027,-0.00018586,0.018000573,0.019109738,0.00641572,0.001024093,-0.015780378,-1.00733614,-0.002427815,0.003361389,0.002170569,56.74269104,0.00401494,0.006716138,0.81697607,0.576618612,0.894081652,0.067900143,109.5719328,-0.006337389,-0.00560103,-0.072685815,6,6402, 
36.16374835,140.0520557,56.38148117,-0.006463408,-0.000217778,0.019988876,0.021009004,0.006467076,0.001141395,-0.015173652,-1.006738663,-0.002810437,0.003065814,0.000890784,56.74137115,0.004012084,0.006713353,0.816931367,0.576681793,0.893626991,0.068052681,109.5630644,-0.01007627,-0.006383661,-0.066997148,6,6405, 
36.16374835,140.0520557,56.44243622,-0.006529969,-0.000270013,0.021364264,0.022341557,0.006535549,0.001437189,-0.014690278,-1.006045699,-0.002816718,0.002749561,-0.000328542,56.74025726,0.004009554,0.006709744,0.816885054,0.576747656,0.89311635,0.068122952,109.553838,-0.015078649,-0.005611412,-0.060317613,6,6408, 
36.16374835,140.0520557,56.44243622,-0.006620966,-0.000279919,0.022718672,0.023665451,0.00662688,0.001880475,-0.014438503,-1.00565958,-0.002469807,0.002533645,-0.001219015,56.73913956,0.004007794,0.006706109,0.816837013,0.576815546,0.892654188,0.068121602,109.544307,-0.01819934,-0.001981173,-0.05646763,6,6411, 
36.16374835,140.0520557,56.44243622,-0.006710799,-0.000260454,0.024039568,0.024960038,0.006715852,0.002396817,-0.0142426,-1.005869031,-0.002133959,0.002265527,-0.001586276,56.73801804,0.004007013,0.00670283,0.816788256,0.576884866,0.892289689,0.068053624,109.5345944,-0.01796668,0.003893029,-0.05841694,6,6414, 
36.16374835,140.0520557,56.44243622,-0.006804722,-0.000218975,0.025299577,0.026199633,0.006808244,0.002812916,-0.014044656,-1.006542921,-0.001768158,0.001875805,-0.001532404,56.7368927,0.004007407,0.006699792,0.816739023,0.576954365,0.892025753,0.067891919,109.5248328,-0.018784583,0.008295745,-0.064920999,6,6417, 
36.16374835,140.0520557,56.69761276,-0.006899611,-0.000178866,0.024104327,0.025072997,0.006901929,0.00289069,-0.013884801,-1.007367373,-0.001362759,0.001656784,-0.001479001,56.7366333,0.004008982,0.006697104,0.816690087,0.577023864,0.891872407,0.06764261,109.5150904,-0.018977769,0.008021802,-0.073375322,6,6420, 
36.16374835,140.0520557,56.69761276,-0.00698769,-0.00014693,0.022893686,0.023936797,0.006989235,0.002659566,-0.013891448,-1.007959008,-0.000895245,0.001499778,-0.000859787,56.73637772,0.004011575,0.00669503,0.81664139,0.577092588,0.891844205,0.067337886,109.5054359,-0.017615832,0.006387219,-0.07910309,6,6423, 
36.16374835,140.0520557,56.69761276,-0.007055246,-0.000127149,0.021680508,0.022799936,0.007056392,0.002178303,-0.0140932,-1.008288145,-0.000386969,0.001587983,0.00044139,56.73613358,0.004014961,0.006693893,0.816594183,0.577159405,0.891956202,0.067018812,109.4960583,-0.013511211,0.003956161,-0.081998445,6,6426, 
36.16374835,140.0520557,56.69761276,-0.007089051,-0.000115299,0.020478228,0.021670851,0.007089989,0.001660381,-0.01442673,-1.008421183,1.83E-05,0.001736163,0.002097709,56.73589706,0.004018791,0.006693844,0.816549182,0.577223182,0.892199715,0.066726856,109.4871115,-0.006761134,0.002370037,-0.082910158,6,6429, 
36.16374835,140.0520557,56.5860405,-0.007094241,-0.000112243,0.020333664,0.021535988,0.007095129,0.001157075,-0.014786731,-1.00848043,0.000430557,0.001970703,0.003734379,56.73528671,0.004022849,0.006694888,0.816506445,0.577283561,0.892560923,0.06648225,109.4786328,-0.001037866,0.000611197,-0.083065607,6,6432, 
36.16374835,140.0520557,56.5860405,-0.007077483,-0.000126265,0.020179506,0.021385022,0.007078609,0.00063321,-0.015066224,-1.008629322,0.0005513,0.002344445,0.004494873,56.73467636,0.004026692,0.006696902,0.816465437,0.577341497,0.892998915,0.066319283,109.4704978,0.003351673,-0.002804425,-0.084407426,6,6435, 
36.16374835,140.0520557,56.5860405,-0.007058318,-0.000156836,0.020010132,0.021219092,0.00706006,0.000202254,-0.015281833,-1.008773565,0.000510693,0.002827942,0.004699695,56.73407364,0.004029727,0.006699611,0.816425145,0.577398419,0.893448556,0.066276824,109.4625058,0.003832892,-0.006114233,-0.085457422,6,6438, 
36.16374835,140.0520557,56.5860405,-0.007051754,-0.000200148,0.019827267,0.0210449,0.007054594,-7.70E-05,-0.015428546,-1.00889039,0.000300045,0.00318261,0.005206391,56.73347092,0.004031734,0.006702664,0.816385388,0.577454627,0.893862368,0.066352634,109.4546172,0.001312762,-0.008662362,-0.08610592,6,6441, 
36.16374835,140.0520557,56.58500671,-0.007045421,-0.000252837,0.019642837,0.020869666,0.007049957,-0.000252027,-0.015527239,-1.008990526,0.000176645,0.00328247,0.005396163,56.73286819,0.004033042,0.006705699,0.81634599,0.577510059,0.894228559,0.066491899,109.4468252,0.001266629,-0.010537706,-0.087081529,6,6444, 
36.16374835,140.0520557,56.58500671,-0.00703435,-0.000321131,0.019445525,0.020681239,0.007041676,-0.000387437,-0.01551276,-1.008805633,-0.000200986,0.003439886,0.005472766,56.73226547,0.004033731,0.006708409,0.816307008,0.577565312,0.894523033,0.066667286,109.4390778,0.002214283,-0.013658829,-0.085976221,6,6447, 
36.16374835,140.0520557,56.58500671,-0.007027951,-0.000398723,0.019245988,0.020492904,0.007039253,-0.000410096,-0.015517764,-1.008349895,-0.000441859,0.004107689,0.005507491,56.73167038,0.004033133,0.006711082,0.816267908,0.577620387,0.894729023,0.066960513,109.4313401,0.001279786,-0.015518449,-0.081923105,6,6450, 
36.16374835,140.0520557,56.58500671,-0.007025396,-0.000453591,0.019059192,0.020317843,0.007040024,-0.000220623,-0.015653903,-1.007930279,-0.000822898,0.004861346,0.005145741,56.73107529,0.004030636,0.006714149,0.816228807,0.577675819,0.894845968,0.067457844,109.4235705,0.000511065,-0.010973494,-0.076788522,6,6453, 
36.16374835,140.0520557,56.65009308,-0.007025019,-0.000472625,0.018285453,0.019594185,0.0070409,0.000173718,-0.01590148,-1.007950783,-0.001198439,0.005015753,0.004299788,56.73070526,0.004026656,0.006717105,0.816188633,0.577732384,0.894854374,0.068087861,109.4156249,7.53E-05,-0.003806967,-0.075850107,6,6456, 
36.16374835,140.0520557,56.65009308,-0.007027441,-0.000479064,0.017528413,0.01889073,0.007043751,0.000701731,-0.016174454,-1.008466125,-0.001436329,0.004816875,0.003233145,56.73033905,0.004022264,0.006719413,0.816147208,0.577790976,0.894774562,0.068715629,109.4074068,-0.000484183,-0.001287695,-0.081850626,6,6459, 
36.16374835,140.0520557,56.65009308,-0.007028523,-0.000476429,0.016753087,0.018173966,0.007044652,0.001321231,-0.016315416,-1.008933187,-0.001493832,0.004391556,0.001997822,56.72998047,0.004018278,0.006720982,0.816104114,0.577851892,0.894652167,0.069258976,109.3988601,-0.000216484,0.000526898,-0.088079073,6,6462, 
36.16374835,140.0520557,56.65009308,-0.007032282,-0.000457976,0.015958047,0.017444827,0.007047179,0.001898001,-0.016278839,-1.009171486,-0.001549007,0.004126099,0.000712868,56.7296257,0.004014896,0.006721949,0.816059113,0.57791543,0.894513293,0.069708986,109.3899411,-0.000751734,0.003690757,-0.091333009,6,6465, 
36.16374835,140.0520557,56.62736511,-0.007047254,-0.000427218,0.015369259,0.016913321,0.007060191,0.002236237,-0.016107975,-1.009374619,-0.001641092,0.004016815,-0.000259926,56.72919846,0.004011772,0.006722508,0.816012502,0.577981293,0.894352935,0.070110274,109.3806977,-0.002994433,0.006151602,-0.09337578,6,6468, 
36.16374835,140.0520557,56.62736511,-0.007078378,-0.000380898,0.014774413,0.01638694,0.007088618,0.002462204,-0.015879974,-1.00918448,-0.001847475,0.003578889,-0.00062798,56.72877502,0.004008981,0.006722372,0.815964937,0.578048527,0.894149634,0.070435927,109.3712624,-0.006224751,0.009263918,-0.090796463,6,6471, 
36.16374855,140.0520557,56.62736511,0.001453632,-0.000366521,0.014196521,0.014275454,0.001499128,0.002588013,-0.015612493,-1.00850153,-0.002420929,0.003119262,-0.000443064,56.72835922,0.004004918,0.00672012,0.815917075,0.578116059,0.893664036,0.070740634,109.361779,-0.007697001,0.00907594,-0.08441744,6,6474, 
36.16374855,140.0520557,56.62736511,0.001409679,-0.000339304,0.013654419,0.013731187,0.001449939,0.002464792,-0.01543465,-1.007561684,-0.002472654,0.002802449,0.000160007,56.72794342,0.004001203,0.006716665,0.815869808,0.578182757,0.893089093,0.070932164,109.3524123,-0.008790538,0.005443461,-0.075854257,6,6477, 
36.16374855,140.0520557,56.74720383,0.001376296,-0.000317904,0.012044332,0.012126879,0.001412535,0.002189856,-0.01535521,-1.006871223,-0.002343544,0.00231102,0.000949775,56.72793961,0.003998381,0.006712699,0.815823674,0.578248084,0.892525541,0.071004609,109.3432478,-0.00667657,0.004279919,-0.06877093,6,6480, 
36.16374855,140.0520557,56.74720383,0.001370042,-0.000299762,0.010508375,0.010601548,0.001402452,0.001960652,-0.01540662,-1.006549358,-0.001969492,0.001887665,0.001795449,56.72794342,0.00399687,0.006708576,0.815778553,0.578311682,0.892034457,0.070942158,109.3343111,-0.001250908,0.003628425,-0.065830506,6,6483, 
36.16374855,140.0520557,56.74720383,0.001389441,-0.000292993,0.009024687,0.009135719,0.001419997,0.001641599,-0.015626572,-1.006266117,-0.001459296,0.001694541,0.002795602,56.72795486,0.003996644,0.006704899,0.815734804,0.578373432,0.891670364,0.07078713,109.3256374,0.003879949,0.00135389,-0.063464567,6,6486, 
36.16374855,140.0520557,56.74720383,0.001435384,-0.000281916,0.007589256,0.007728946,0.001462806,0.001419104,-0.015920676,-1.006291151,-0.00140968,0.001945427,0.003505745,56.72797394,0.003996779,0.006701826,0.815692246,0.578433454,0.891386829,0.070636401,109.3172043,0.009188443,0.002215356,-0.063406967,6,6489, 
36.16374855,140.0520557,56.84637833,0.001481618,-0.00026645,0.005267117,0.00547802,0.001505386,0.001201393,-0.016136307,-1.00678277,-0.001494809,0.002435097,0.003903668,56.72834015,0.003996144,0.006699245,0.815650523,0.578492343,0.891098459,0.070589014,109.3089332,0.009246916,0.003093254,-0.067199871,6,6492, 
36.16374855,140.0520557,56.84637833,0.001517654,-0.000248656,0.002989423,0.003361808,0.001537889,0.001001823,-0.016357036,-1.007372141,-0.001593449,0.002836942,0.004164179,56.72871399,0.003994474,0.006697119,0.815609276,0.578550518,0.890783985,0.070667668,109.3007615,0.007207185,0.003558706,-0.071922615,6,6495, 
36.16374855,140.0520557,56.84637833,0.001557273,-0.000230907,0.000749657,0.001743675,0.001574299,0.000951673,-0.016545061,-1.007914066,-0.001686127,0.003414117,0.004605157,56.72909927,0.003991676,0.006695502,0.815568566,0.578607976,0.890442313,0.070884752,109.2926934,0.007923871,0.003549956,-0.077259257,6,6498, 
36.16374855,140.0520557,56.84637833,0.001599649,-0.000205764,-0.001457045,0.002173521,0.001612828,0.001034524,-0.016616846,-1.008270741,-0.001826028,0.003669072,0.004836493,56.729496,0.003987867,0.006694247,0.815528333,0.57866478,0.890067486,0.071219375,109.284719,0.00847505,0.005028542,-0.080719873,6,6501, 
36.16374855,140.0520557,56.3845787,0.001635584,-0.000177066,0.000671774,0.001777011,0.001645141,0.001205043,-0.016550124,-1.008286715,-0.001542357,0.003745808,0.004667997,56.72833252,0.003983827,0.006693378,0.8154881,0.578721523,0.889713386,0.071601202,109.2767505,0.007187113,0.005739577,-0.081166849,6,6504, 
36.16374855,140.0520557,56.3845787,0.001672601,-0.00014842,0.002719219,0.0031959,0.001679173,0.00146833,-0.016495671,-1.008005142,-0.001231244,0.004028202,0.004348464,56.72716141,0.003979849,0.006693377,0.815447509,0.578778744,0.889444389,0.072035334,109.2687143,0.007403389,0.005729146,-0.079213947,6,6507, 
36.16374855,140.0520557,56.3845787,0.001706764,-0.000102613,0.004699665,0.005001042,0.001709845,0.001786613,-0.016395517,-1.0077281,-0.001307689,0.004236935,0.003998852,56.72598267,0.003975536,0.006693974,0.815406322,0.57883662,0.88920901,0.072541073,109.2605778,0.00683248,0.009161342,-0.076202795,6,6510, 
36.16374855,140.0520557,56.3845787,0.001711819,-4.84E-05,0.006620698,0.00683859,0.001712502,0.002043133,-0.016098429,-1.007366061,-0.001493951,0.003927958,0.003763129,56.72480011,0.003971133,0.006694235,0.815364897,0.578895211,0.888936055,0.073033548,109.2523585,0.001011133,0.010849774,-0.072017848,6,6513, 
36.16374855,140.0520557,56.94865417,0.001688682,-9.71E-06,0.003244443,0.003657615,0.00168871,0.002223392,-0.015649278,-1.007163525,-0.001807571,0.003454818,0.003340326,56.72552872,0.003967162,0.006693423,0.815322876,0.578954399,0.888591417,0.073415217,109.2440431,-0.004627526,0.007731218,-0.070825577,6,6516, 
36.16374855,140.0520557,56.94865417,0.001650305,1.01E-05,-3.05E-05,0.001650618,0.001650336,0.002292869,-0.015326341,-1.007260084,-0.002002835,0.003074761,0.002709848,56.72627258,0.003963685,0.006691479,0.81528002,0.579014599,0.888173775,0.073676756,109.2355766,-0.007675245,0.003954433,-0.073093958,6,6519, 
36.16374855,140.0520557,56.94865417,0.001598279,2.57E-05,-0.003224239,0.003598733,0.001598485,0.002312113,-0.015099589,-1.007435322,-0.002248285,0.002772134,0.002194139,56.72702789,0.003960577,0.006688599,0.815236568,0.579076111,0.887692738,0.073842916,109.2269473,-0.010405377,0.003129397,-0.074968062,6,6522, 
36.16374855,140.0520557,56.94865417,0.001539663,4.81E-05,-0.006337577,0.006522097,0.001540413,0.002420041,-0.015003805,-1.007721424,-0.002172747,0.002830093,0.001621681,56.72779846,0.003957587,0.006685372,0.815192103,0.579138577,0.887187333,0.073976111,109.2181614,-0.011723056,0.004468545,-0.077693559,6,6525, 
36.16374855,140.0520557,56.82778549,0.001487685,8.72E-05,-0.008253336,0.008386797,0.001490237,0.002522556,-0.015115989,-1.007970572,-0.001882876,0.003218948,0.001006242,56.72816849,0.003954398,0.006682848,0.815146863,0.579202294,0.886734052,0.074175806,109.2092077,-0.010395646,0.007823933,-0.079690389,6,6528, 
36.16374855,140.0520557,56.82778549,0.001456488,0.000147826,-0.010129999,0.010235238,0.001463971,0.002457527,-0.015423815,-1.008209109,-0.001527775,0.003295034,0.000425968,56.72854996,0.003951195,0.006681324,0.815100789,0.579267204,0.886373122,0.074444421,109.2000879,-0.006239429,0.012130611,-0.080942467,6,6531, 
36.16374855,140.0520557,56.82778549,0.001451517,0.00021123,-0.011965293,0.012054865,0.001466805,0.002330089,-0.015852429,-1.008422136,-0.001096768,0.003005137,0.00033446,56.72893524,0.003948775,0.006680449,0.815054178,0.579332769,0.886124717,0.074683634,109.190871,-0.00099431,0.012680784,-0.083073929,6,6534, 
36.16374855,140.0520557,56.82778549,0.001482805,0.000258519,-0.013764983,0.013847032,0.001505172,0.002139582,-0.016292777,-1.008566618,-0.000925968,0.00291825,0.000772535,56.72933197,0.003947179,0.006679913,0.815007925,0.579398036,0.885962704,0.074867967,109.1817053,0.006257728,0.009457782,-0.085895851,6,6537, 
36.16374855,140.0520557,56.95485306,0.001535419,0.000294423,-0.016715631,0.016788583,0.001563393,0.001860284,-0.016545687,-1.00872612,-0.00079955,0.003163928,0.001577985,56.73016739,0.003945649,0.006679787,0.814962387,0.579461992,0.885843527,0.07507207,109.1727098,0.010522798,0.007180907,-0.08779557,6,6540, 
36.16374855,140.0520557,56.95485306,0.001595499,0.000335195,-0.019594919,0.019662625,0.001630329,0.001626915,-0.016721122,-1.008982182,-0.000658633,0.003373541,0.002173934,56.73101425,0.003943863,0.006680258,0.814917982,0.579524577,0.885762991,0.075338094,109.163918,0.012015894,0.008154288,-0.089296654,6,6543, 
36.16374855,140.0520557,56.95485306,0.001662479,0.000380479,-0.022403274,0.022468095,0.001705462,0.001516803,-0.016845776,-1.009010315,-0.000731726,0.003165852,0.002610965,56.73187256,0.003942133,0.00668079,0.814874113,0.579586029,0.88569227,0.07560188,109.1552676,0.013395995,0.009056754,-0.089023903,6,6546, 
36.16374855,140.0520557,56.95485306,0.001727771,0.000408015,-0.025134148,0.025196767,0.001775294,0.001443252,-0.016843602,-1.008975267,-0.000932182,0.003168444,0.002726665,56.73274231,0.003940422,0.006680895,0.814830899,0.579647005,0.885582575,0.075834799,109.146705,0.013058573,0.005507231,-0.089582756,6,6549, 
36.16374855,140.0520557,56.33602142,0.001779254,0.000420826,-0.022038747,0.022114457,0.001828344,0.001363054,-0.016698366,-1.008912325,-0.001459578,0.003323909,0.002918134,56.73151779,0.003938026,0.006680368,0.814787686,0.579707563,0.8853687,0.076089381,109.1381815,0.010296583,0.002562255,-0.089298561,6,6552, 
36.16374855,140.0520557,56.33602142,0.001802843,0.000423721,-0.019051785,0.019141585,0.001851967,0.001181797,-0.01634956,-1.008783937,-0.001780671,0.003753843,0.003443056,56.73028183,0.003934427,0.006679399,0.814745188,0.579767525,0.885033478,0.076426091,109.1297617,0.004717648,0.000578955,-0.087276772,6,6555, 
36.16374855,140.0520557,56.33602142,0.001810125,0.000425262,-0.016161265,0.016267879,0.001859409,0.00105349,-0.015968865,-1.008735895,-0.002135134,0.00375683,0.00345405,56.72903824,0.003929903,0.006678051,0.814702868,0.579826832,0.884601556,0.076823336,109.1214154,0.001456529,0.000308208,-0.085953072,6,6558, 
36.16374855,140.0520557,56.33602142,0.001812761,0.000413663,-0.013367473,0.013496168,0.00185936,0.000900783,-0.01572565,-1.008868694,-0.002361649,0.003465709,0.003561675,56.7277832,0.003925254,0.006675903,0.814660788,0.579886019,0.884086475,0.077178853,109.1130957,0.000527248,-0.002319872,-0.08745797,6,6561, 
36.16374855,140.0520557,56.6438942,0.00181333,0.000378308,-0.013544666,0.013670744,0.001852372,0.000839382,-0.015598256,-1.009044051,-0.002164022,0.003395275,0.003454716,56.72756577,0.003920954,0.006673464,0.814618707,0.579945207,0.88356731,0.077482366,109.1047756,0.000113606,-0.007070925,-0.090315923,6,6564, 
36.16374855,140.0520557,56.6438942,0.001822654,0.00035074,-0.013743014,0.013867787,0.001856094,0.000946478,-0.015553315,-1.009327769,-0.001898903,0.003384591,0.002964103,56.72734833,0.003917067,0.006671439,0.814576149,0.58000505,0.883114331,0.077775484,109.0963625,0.001864925,-0.005513649,-0.093150482,6,6567, 
36.16374855,140.0520557,56.6438942,0.001834701,0.000339421,-0.013962155,0.014086274,0.001865833,0.001072626,-0.015569695,-1.009447098,-0.001991479,0.00308137,0.002570463,56.7271347,0.00391362,0.006669367,0.814532936,0.580065787,0.882685979,0.078025296,109.0878221,0.002409294,-0.002263803,-0.093690947,6,6570, 
36.16374855,140.0520557,56.6438942,0.001840755,0.000321463,-0.014190392,0.014312894,0.001868614,0.001091121,-0.015626123,-1.009465456,-0.002009993,0.002461863,0.00239069,56.72692108,0.003911029,0.006666515,0.814489305,0.58012712,0.882241562,0.07814404,109.0791973,0.001210973,-0.003591448,-0.094208941,6,6573, 
36.16374855,140.0520557,56.67178726,0.001854259,0.000283898,-0.014686794,0.014806107,0.001875866,0.000989323,-0.015709475,-1.009414434,-0.001961774,0.002309422,0.00214288,56.72680664,0.003909242,0.006663135,0.814445376,0.58018887,0.881801407,0.078152908,109.0705129,0.002700672,-0.007513054,-0.094883762,6,6576, 
36.16374855,140.0520557,56.67178726,0.001879115,0.000246201,-0.015184342,0.015302154,0.001895175,0.000844788,-0.01581642,-1.009347439,-0.001779728,0.002526063,0.002020725,56.7266922,0.003907557,0.006660038,0.81440115,0.580250978,0.881394312,0.078171524,109.0617754,0.004971266,-0.007539447,-0.094012648,6,6579, 
36.16374855,140.0520557,56.67178726,0.001910441,0.000227607,-0.015675388,0.015793017,0.001923952,0.000729422,-0.015974235,-1.009208202,-0.001427792,0.002428316,0.00189446,56.72658157,0.003906137,0.006657572,0.814356863,0.580313325,0.881063754,0.078207421,109.0530118,0.006265253,-0.003718745,-0.091067143,6,6582, 
36.16374855,140.0520557,56.67178726,0.001954977,0.000211869,-0.01614962,0.016268898,0.001966424,0.00070433,-0.016083792,-1.008935452,-0.000931696,0.00236211,0.001659872,56.72647476,0.003905498,0.006655851,0.814312041,0.580375969,0.880854675,0.078220464,109.0441847,0.008907154,-0.003147639,-0.088460065,6,6585, 
36.16374855,140.0520557,56.19551468,0.002008278,0.000194631,-0.01217938,0.012345378,0.002017687,0.000797779,-0.016107716,-1.008638144,-0.000650698,0.002597676,0.001495301,56.72480392,0.00390525,0.006655046,0.814267159,0.580439091,0.880756946,0.078258331,109.0353094,0.010660082,-0.003447529,-0.086228602,6,6588, 
36.16374855,140.0520557,56.19551468,0.002050688,0.000192141,-0.008335703,0.008586395,0.00205967,0.000978269,-0.016025303,-1.008494616,-0.000704687,0.002762356,0.001475885,56.72311401,0.003904758,0.006654763,0.814222038,0.580502391,0.880691776,0.078353778,109.026402,0.008467093,-0.000430431,-0.083841905,6,6591, 
36.16374855,140.0520556,56.19551468,0.016922802,0.000408744,-0.004613645,0.017545199,0.016927737,0.001138906,-0.015848245,-1.008478403,-0.001148282,0.003080092,0.001989251,56.72140884,0.003905009,0.006653018,0.814180374,0.580560863,0.880539989,0.07827758,109.0181737,0.004023358,0.000682831,-0.082991868,6,6594, 
36.16374855,140.0520556,56.19551468,0.016919231,0.000408385,-0.00101686,0.01695468,0.016924159,0.001193894,-0.015587064,-1.008556604,-0.001434116,0.003235122,0.002598074,56.71968842,0.00390426,0.006650868,0.814139545,0.580618203,0.880284036,0.078266376,109.010107,-0.000714451,-7.17E-05,-0.08330819,6,6597, 
36.16374855,140.0520556,56.53128433,0.016906992,0.000406761,-0.000669998,0.01692515,0.016911884,0.001213668,-0.015390217,-1.00847137,-0.001578027,0.003197544,0.003084911,56.71905136,0.00390309,0.006648361,0.814099371,0.58067435,0.879966942,0.078269431,109.0021953,-0.002448067,-0.000324834,-0.082136549,6,6600, 
36.16374855,140.0520556,56.53128433,0.016903736,0.000395331,-0.000340658,0.016911789,0.016908358,0.001148195,-0.015339905,-1.00820899,-0.001595324,0.003220439,0.00328335,56.71841812,0.003901827,0.006645677,0.814059913,0.580729961,0.879627014,0.078268658,108.9943811,-0.000650853,-0.002286091,-0.080197908,6,6603, 
36.16374855,140.0520556,56.53128433,0.016909529,0.000377957,-2.43E-05,0.016913769,0.016913752,0.001030868,-0.01541952,-1.007944822,-0.001626491,0.00332545,0.003352813,56.71778107,0.003900402,0.006643033,0.814020455,0.580785155,0.879280261,0.078285325,108.986606,0.001158744,-0.003474709,-0.077835657,6,6606, 
36.16374855,140.0520556,56.53128433,0.016919216,0.000364251,0.00028192,0.016925485,0.016923137,0.000982163,-0.015552684,-1.0078125,-0.001542718,0.003242916,0.00369849,56.71714783,0.003898998,0.006640458,0.813981354,0.580839932,0.87894136,0.078304058,108.9788936,0.001937374,-0.002741285,-0.076207735,6,6609, 
36.16374855,140.0520556,56.63149643,0.016936081,0.000352962,-0.000357033,0.01694352,0.016939758,0.001036187,-0.015635666,-1.007820487,-0.001301942,0.003171491,0.003872457,56.71685791,0.003897992,0.006638099,0.81394273,0.580894232,0.878649113,0.078299352,108.9712573,0.003372699,-0.00225782,-0.076511003,6,6612, 
36.16374855,140.0520556,56.63149643,0.01695629,0.000336905,-0.00098878,0.016988436,0.016959637,0.001009533,-0.015504853,-1.007621527,-0.00101286,0.003079999,0.003715111,56.71656799,0.00389754,0.006636159,0.813903987,0.580948472,0.87843292,0.078271069,108.9636185,0.004042134,-0.003211301,-0.074886896,6,6615, 
36.16374855,140.0520556,56.63149643,0.016969673,0.000312318,-0.001603922,0.017048165,0.016972547,0.000891664,-0.015291261,-1.007285714,-0.001036494,0.00314833,0.003448461,56.71628189,0.003897302,0.006634477,0.813864946,0.581003129,0.8782549,0.078240196,108.9559209,0.002676532,-0.004917432,-0.071584851,6,6618, 
36.16374855,140.0520556,56.63149643,0.016971955,0.000286366,-0.002194357,0.017115621,0.016974371,0.000838769,-0.015253971,-1.007126331,-0.001288933,0.002735176,0.003082777,56.7159996,0.003897212,0.006632267,0.813825548,0.581058502,0.878037383,0.078161138,108.9481324,0.000456274,-0.00519035,-0.069639347,6,6621, 
36.16374855,140.0520556,56.36494827,0.016966086,0.000254324,-0.00028817,0.016970439,0.016967992,0.000903073,-0.015328203,-1.006992102,-0.001601176,0.002033755,0.002428958,56.71481705,0.003897839,0.006628676,0.813785315,0.581114829,0.87773893,0.077924365,108.9401982,-0.001173869,-0.006408546,-0.068790995,6,6624, 
36.16374855,140.0520556,56.36494827,0.016959347,0.000202456,0.001551822,0.0170314,0.016960555,0.000935371,-0.015376542,-1.006908417,-0.001717175,0.001891509,0.00200127,56.71362686,0.003899005,0.006624043,0.813744307,0.581172287,0.877378996,0.077568955,108.9321058,-0.001347542,-0.010373581,-0.069321439,6,6627, 
36.16374855,140.0520556,56.36494827,0.016947167,0.000156227,0.003320859,0.017270176,0.016947887,0.000926903,-0.015243348,-1.00705874,-0.001591328,0.001965644,0.001366451,56.71243286,0.003900241,0.006619375,0.813702524,0.581230819,0.877020483,0.0772059,108.9238617,-0.002436146,-0.009245813,-0.070102468,6,6630, 
36.16374855,140.0520556,56.36494827,0.016927063,0.000132878,0.005019751,0.01765619,0.016927585,0.001042831,-0.015019596,-1.007514834,-0.001511094,0.002272569,0.000925621,56.71123505,0.003901232,0.006615198,0.813659966,0.581290424,0.876691358,0.076899507,108.9154663,-0.004020482,-0.004669748,-0.073210493,6,6633, 
36.16374855,140.0520556,56.5912056,0.01690382,0.000127928,0.004534676,0.017501965,0.016904304,0.001238707,-0.015028426,-1.007938504,-0.001191505,0.00256962,0.00059084,56.71080017,0.003901895,0.00661187,0.813616812,0.581350803,0.876419554,0.07668111,108.9069598,-0.004648596,-0.00099007,-0.076729551,6,6636, 
36.16374855,140.0520556,56.5912056,0.01689733,0.000137998,0.004036153,0.017373236,0.016897894,0.001310823,-0.01532291,-1.008245945,-0.000996831,0.002674231,0.000820389,56.71036911,0.003902524,0.006609358,0.813573599,0.581411302,0.876221565,0.076520293,108.8984386,-0.001297921,0.002014108,-0.079426542,6,6639, 
36.16374855,140.0520556,56.5912056,0.016921058,0.000148901,0.0035282,0.017285618,0.016921713,0.00123199,-0.015747957,-1.008374214,-0.000731916,0.0027038,0.001193593,56.70994568,0.003903357,0.006607409,0.813530803,0.581471205,0.876089695,0.076377182,108.890001,0.004745752,0.002180643,-0.081163183,6,6642, 
36.16374855,140.0520556,56.5912056,0.016971814,0.000156132,0.003015521,0.017238335,0.016972532,0.001095369,-0.016126383,-1.008490324,-0.000844784,0.002565359,0.001082551,56.70952225,0.003904416,0.006605532,0.813488185,0.581530869,0.875979741,0.076217685,108.8815974,0.010151029,0.001446139,-0.082796827,6,6645, 
36.16374855,140.0520556,56.60876846,0.017027505,0.000151175,0.002335193,0.017187551,0.017028176,0.000932175,-0.016332012,-1.008659959,-0.001342294,0.002498471,0.001136323,56.70916367,0.003905241,0.006602885,0.813445449,0.581590533,0.875782413,0.076028644,108.8731856,0.011137888,-0.0009913,-0.084854856,6,6648, 
36.16374855,140.0520556,56.60876846,0.017067585,0.000134218,0.001653517,0.01714802,0.017068113,0.000852831,-0.016380895,-1.00880003,-0.00183205,0.002599131,0.001345475,56.70881271,0.003905319,0.00659926,0.81340307,0.581650019,0.875443971,0.075843734,108.8648143,0.008016363,-0.003391583,-0.086360708,6,6651, 
36.16374855,140.0520556,56.60876846,0.01710397,0.000127652,0.000973003,0.017132099,0.017104446,0.000948884,-0.016484341,-1.008956909,-0.00190698,0.002683305,0.001534994,56.70846558,0.003904802,0.006595191,0.81336087,0.581709027,0.875024782,0.075684165,108.8564994,0.007276982,-0.001313027,-0.087449685,6,6654, 
36.16374855,140.0520556,56.60876846,0.017155899,0.000140156,0.000295518,0.017159016,0.017156471,0.001166016,-0.01667867,-1.009009719,-0.001737714,0.003063094,0.001951807,56.70812225,0.003903889,0.006591552,0.813319087,0.58176744,0.874619374,0.075589591,108.8482684,0.010385796,0.00250081,-0.087874353,6,6657, 
36.16374855,140.0520556,56.56847763,0.017224925,0.000174883,-1.16E-06,0.017225812,0.017225812,0.001340468,-0.01681342,-1.008970618,-0.001522963,0.003150608,0.002718521,56.70764923,0.003902791,0.006588639,0.813278198,0.58182466,0.874269322,0.075559206,108.8402087,0.013805285,0.006945256,-0.087058693,6,6660, 
36.16374855,140.0520556,56.56847763,0.01730453,0.0002139,-0.000297568,0.01730841,0.017305852,0.001345791,-0.016794104,-1.008944035,-0.001638552,0.003165276,0.003098802,56.70717621,0.003901672,0.006585896,0.813238144,0.581880689,0.873933813,0.075540733,108.8323158,0.015921578,0.007803421,-0.086792454,6,6663, 
36.16374855,140.0520556,56.56847763,0.017373325,0.000236388,-0.000596332,0.017385164,0.017374933,0.00128769,-0.01661972,-1.008921862,-0.001980821,0.003121509,0.003498697,56.70670319,0.003900257,0.006582662,0.813198626,0.581935942,0.873532978,0.075516246,108.8245308,0.0137586,0.00449767,-0.087211192,6,6666, 
36.16374855,140.0520556,56.56847763,0.01741419,0.000244568,-0.000900731,0.017439184,0.017415907,0.001235649,-0.016317286,-1.008939028,-0.002326233,0.003052336,0.003777043,56.70623779,0.003898465,0.006578644,0.813159764,0.58199048,0.873033948,0.075473828,108.816856,0.008172691,0.001635965,-0.087420374,6,6669, 
36.16374855,140.0520556,56.72757339,0.017436095,0.000243266,-0.002689217,0.017643936,0.017437792,0.001195602,-0.015989663,-1.008981466,-0.002369526,0.002760389,0.003818997,56.70631409,0.00389676,0.006573966,0.813120902,0.582044601,0.872479384,0.075378866,108.8092197,0.004381239,-0.000260491,-0.087832913,6,6672, 
36.16374855,140.0520556,56.72757339,0.017447408,0.000230185,-0.004436392,0.018004072,0.017448927,0.001157724,-0.015606834,-1.008897185,-0.00238303,0.002594228,0.003896229,56.70640182,0.003895482,0.006568898,0.813082337,0.582098722,0.871916789,0.075217839,108.8016027,0.002262712,-0.002616145,-0.08749713,6,6675, 
36.16374855,140.0520556,56.72757339,0.017447803,0.000213127,-0.006139825,0.018497803,0.017449105,0.001182436,-0.015229357,-1.008655548,-0.002361962,0.002275568,0.003810907,56.70649719,0.003894703,0.006563484,0.813043654,0.582152784,0.871355364,0.0749872,108.7939827,7.88E-05,-0.003411509,-0.085296988,6,6678, 
36.16374855,140.0520556,56.72757339,0.017436715,0.00019561,-0.007791446,0.019099317,0.017437812,0.001243955,-0.015032412,-1.00842309,-0.001730923,0.002004777,0.003390449,56.70660019,0.003894995,0.006558307,0.813004613,0.582207382,0.870887391,0.074673149,108.7862884,-0.002217531,-0.003503546,-0.083064578,6,6681, 
36.16374855,140.0520556,56.32982254,0.017431442,0.000184018,-0.005693165,0.018338515,0.017432413,0.001376489,-0.014958533,-1.008290052,-0.001090472,0.001805172,0.002809233,56.7053566,0.003896682,0.006554084,0.812964797,0.582262993,0.870601537,0.07429379,108.7784476,-0.001054421,-0.002318341,-0.082092211,6,6684, 
36.16374855,140.0520556,56.32982254,0.017433386,0.000183408,-0.003668274,0.017816083,0.017434351,0.001515439,-0.014943049,-1.008196592,-0.000802374,0.0023021,0.002590724,56.70410538,0.003898738,0.006551026,0.812924385,0.582319379,0.870448716,0.07395861,108.7704953,0.000388846,-0.000121921,-0.080972098,6,6687, 
36.16374855,140.0520556,56.32982254,0.017420795,0.000206442,-0.001713654,0.017506094,0.017422018,0.001691935,-0.014956711,-1.008222103,-0.000791061,0.002659533,0.002435714,56.70285034,0.003900142,0.006548896,0.812883735,0.582376182,0.870338808,0.073746492,108.7624891,-0.002518564,0.004606675,-0.079684421,6,6690, 
36.16374855,140.0520556,56.32982254,0.017391786,0.000250317,0.000173805,0.017394456,0.017393587,0.0019027,-0.014963391,-1.008381605,-0.001123864,0.002487784,0.001990598,56.70159149,0.00390112,0.006546578,0.812842607,0.582433581,0.870182889,0.073562141,108.7543958,-0.005801871,0.00877516,-0.079982825,6,6693, 
36.16374855,140.0520556,56.59430313,0.017355457,0.000269644,-0.000471296,0.017363949,0.017357551,0.00184337,-0.014984106,-1.008514285,-0.001366089,0.002386649,0.001386283,56.70122528,0.003901948,0.006543482,0.812800705,0.582492054,0.869944569,0.073340922,108.7461504,-0.007265776,0.003865238,-0.082446046,6,6696, 
36.16374855,140.0520556,56.59430313,0.017322585,0.00026023,-0.001120318,0.017360725,0.01732454,0.001481988,-0.015067833,-1.008669853,-0.001357965,0.002451859,0.001014821,56.7008667,0.003902636,0.006540128,0.812758088,0.582551539,0.869672665,0.073116585,108.7377629,-0.006574184,-0.001882646,-0.084768333,6,6699, 
36.16374855,140.0520556,56.59430313,0.017310238,0.000247847,-0.0017728,0.017402545,0.017312012,0.001131165,-0.015245177,-1.008817196,-0.001355621,0.002422365,0.001051292,56.70050812,0.003903293,0.006536812,0.812715232,0.582611322,0.869402391,0.072897991,108.7293318,-0.002469912,-0.002476785,-0.085707255,6,6702, 
36.16374855,140.0520556,56.59430313,0.017323559,0.000230627,-0.002422045,0.017493576,0.017325094,0.000828885,-0.015488677,-1.008985639,-0.001267226,0.002284583,0.001254187,56.70015335,0.00390419,0.006533467,0.812672615,0.582670927,0.869145313,0.072654816,108.7209331,0.002664194,-0.003443994,-0.087302729,6,6705, 
36.16374855,140.0520556,56.29676056,0.017362297,0.000204881,-0.000304319,0.017366172,0.017363505,0.000585857,-0.015808553,-1.00896287,-0.001106843,0.001934998,0.001503951,56.6987915,0.003905768,0.006530016,0.812630236,0.582730055,0.868924042,0.072340717,108.7125942,0.007747561,-0.00514913,-0.087493896,6,6708, 
36.16374855,140.0520556,56.29676056,0.017417872,0.000169264,0.001732723,0.017504664,0.017418695,0.000428585,-0.015968397,-1.008685589,-0.000903646,0.001659077,0.001978903,56.69742584,0.003908252,0.006526476,0.812588394,0.582788408,0.868755135,0.071935352,108.7043626,0.01111491,-0.007123332,-0.085197188,6,6711, 
36.16374825,140.0520557,56.29676056,0.003417166,1.68E-05,0.003703897,0.00503946,0.003417207,0.000268004,-0.015920512,-1.008280993,-0.001003867,0.001871382,0.002094456,56.69605637,0.003910907,0.006527194,0.812547803,0.582844973,0.868994229,0.071796619,108.6963834,0.012656152,-0.009132739,-0.08141312,6,6714, 
36.16374825,140.0520557,56.29676056,0.003461415,-1.98E-05,0.005618962,0.006599585,0.003461472,0.000280579,-0.015769813,-1.007857442,-0.001050326,0.002027714,0.002359598,56.69467926,0.003913083,0.006528028,0.812507391,0.58290112,0.869212428,0.071709818,108.6884554,0.008849785,-0.007312536,-0.076009937,6,6717, 
36.16374825,140.0520557,56.58707047,0.003483043,-4.83E-05,0.004788327,0.005921317,0.003483378,0.000370506,-0.015579998,-1.007654428,-0.000700932,0.002003041,0.002703358,56.69428635,0.003915353,0.006529266,0.812467635,0.582956731,0.86947423,0.071640589,108.6806213,0.004325703,-0.005691409,-0.073032014,6,6720, 
36.16374825,140.0520557,56.58707047,0.003512207,-7.66E-05,0.003987106,0.005313989,0.003513043,0.000456705,-0.015435587,-1.007537842,-0.000549359,0.001819612,0.003134966,56.69389725,0.003918206,0.006530856,0.812428296,0.583011508,0.86980812,0.071539878,108.6728925,0.005832776,-0.005669862,-0.072407357,6,6723, 
36.16374825,140.0520557,56.58707047,0.003539736,-0.000108841,0.003203116,0.004775095,0.003541409,0.000535981,-0.015242856,-1.007540345,-0.000723431,0.001471033,0.003411452,56.69351578,0.003921589,0.006532033,0.812389374,0.58306551,0.870139009,0.071361422,108.6652632,0.00550577,-0.006446585,-0.072962396,6,6726, 
36.16374825,140.0520557,56.58707047,0.003547204,-0.00015273,0.002430052,0.004302457,0.00355049,0.00058714,-0.015061669,-1.007757187,-0.001100105,0.001237714,0.003594925,56.69313812,0.003925166,0.006532224,0.812350929,0.583119094,0.870391146,0.071098673,108.6577039,0.001493514,-0.008777745,-0.075594656,6,6729, 
36.16374825,140.0520557,56.50855637,0.003538518,-0.000202793,0.002387365,0.004273376,0.003544324,0.000599899,-0.015006935,-1.007812142,-0.001147031,0.001280331,0.003242984,56.69249725,0.003928626,0.006531849,0.812312365,0.583172858,0.870582678,0.070809048,108.6501197,-0.001737162,-0.010012597,-0.07622236,6,6732, 
36.16374825,140.0520557,56.50855637,0.00353028,-0.000243377,0.002331469,0.004237671,0.003538659,0.000617172,-0.01510434,-1.007649302,-0.001199749,0.001884692,0.00296549,56.6918602,0.003931352,0.006531847,0.812273324,0.583227277,0.870759954,0.070613455,108.6424434,-0.001647577,-0.008116737,-0.074029773,6,6735, 
36.16374825,140.0520557,56.50855637,0.00353257,-0.000260279,0.002276749,0.004210746,0.003542146,0.000622275,-0.015378026,-1.007572532,-0.001280035,0.002597092,0.002930897,56.69122696,0.003932643,0.006532671,0.812233984,0.583281994,0.870918187,0.070607124,108.6347208,0.000458017,-0.003380522,-0.071899824,6,6738, 
36.16374825,140.0520557,56.50855637,0.003543025,-0.000250805,0.002223209,0.004190297,0.003551891,0.000763586,-0.015679359,-1.007640123,-0.001272678,0.003044638,0.002730723,56.69059372,0.003932701,0.00653427,0.812194467,0.583336949,0.871066118,0.070767514,108.6269653,0.002090976,0.001894921,-0.071427047,6,6741, 
36.16374825,140.0520557,56.43313599,0.003561181,-0.000230418,0.002864279,0.004575936,0.003568627,0.001023725,-0.015861873,-1.007778168,-0.001281035,0.003226269,0.002502932,56.68970871,0.003932115,0.006536329,0.812154651,0.583392382,0.871213764,0.07101914,108.6191462,0.003631219,0.004077435,-0.073143564,6,6744, 
36.16374825,140.0520557,56.43313599,0.003579866,-0.000204299,0.003465753,0.004986845,0.003585691,0.00138128,-0.015923237,-1.007899404,-0.001177747,0.003189601,0.002103844,56.68881989,0.003931447,0.006538594,0.812114418,0.58344841,0.871375034,0.071292841,108.611244,0.003736958,0.005223703,-0.075175911,6,6747, 
36.16374825,140.0520557,56.43313599,0.003596367,-0.000170842,0.004027038,0.005401859,0.003600423,0.001773707,-0.015905891,-1.008202314,-0.001440217,0.003418766,0.001785526,56.68793106,0.003930463,0.006540842,0.812073648,0.583505213,0.871513409,0.071595701,108.6032339,0.003300354,0.006691478,-0.078933544,6,6750, 
36.16374825,140.0520557,56.43313599,0.003602321,-0.000128008,0.004540435,0.005797297,0.003604594,0.00197518,-0.015893966,-1.008458614,-0.001876193,0.003441211,0.001596007,56.68704605,0.00392871,0.006542569,0.812032402,0.583562434,0.871551838,0.071935741,108.5951534,0.001190618,0.00856683,-0.081164375,6,6753, 
36.16374825,140.0520557,56.15108871,0.003593786,-8.23E-05,0.007637573,0.008441244,0.003594728,0.002092317,-0.015902361,-1.008578777,-0.001769343,0.003521319,0.001763257,56.68526459,0.003926613,0.006544037,0.811991215,0.583619773,0.871543168,0.072290604,108.5870658,-0.001706958,0.009141445,-0.082102947,6,6756, 
36.16374825,140.0520557,56.15108871,0.003599299,-3.46E-05,0.010619988,0.011213398,0.003599465,0.002136644,-0.015905213,-1.008375645,-0.001633011,0.003612925,0.002065991,56.68346786,0.003924524,0.006545877,0.811950386,0.583676636,0.871569542,0.072669034,108.5790467,0.001102641,0.009549018,-0.080253407,6,6759, 
36.16374825,140.0520557,56.15108871,0.003616851,1.59E-05,0.013504931,0.01398088,0.003616886,0.002061083,-0.015780814,-1.008027792,-0.001499368,0.003570564,0.002317373,56.6816597,0.003922587,0.006548025,0.811909854,0.583732843,0.871634903,0.073053297,108.5711087,0.003510445,0.010090996,-0.076673314,6,6762, 
36.16374825,140.0520557,56.15108871,0.003630356,5.59E-05,0.016304277,0.016703654,0.003630787,0.001952818,-0.015627056,-1.007877946,-0.001701247,0.003509864,0.002489805,56.67984009,0.00392071,0.006550028,0.81186974,0.583788693,0.871690619,0.073421923,108.5632317,0.002700999,0.008002039,-0.075403973,6,6765, 
36.16374825,140.0520557,56.60980225,0.003636287,7.86E-05,0.014743459,0.015185465,0.003637137,0.001740477,-0.015547423,-1.008040428,-0.002011571,0.003355557,0.002445427,56.67952347,0.003918679,0.006551356,0.811829746,0.583844423,0.871673123,0.07375943,108.5553734,0.001186252,0.004540045,-0.07720165,6,6768, 
36.16374825,140.0520557,56.60980225,0.003630162,8.17E-05,0.013210835,0.013700763,0.003631082,0.001492424,-0.015467674,-1.008387089,-0.002043563,0.003236874,0.002193437,56.67921448,0.003916673,0.006552139,0.811789513,0.583900392,0.871606703,0.074058565,108.5474768,-0.001225039,0.000623178,-0.080714986,6,6771, 
36.16374825,140.0520557,56.60980225,0.003627507,7.41E-05,0.011696767,0.012246578,0.003628264,0.001388916,-0.015342063,-1.00877142,-0.001859391,0.00339638,0.002300286,56.67891312,0.003914736,0.006553109,0.81174916,0.58395648,0.871562221,0.074363845,108.5395611,-0.001903102,-0.001203906,-0.084630772,6,6774, 
36.16374825,140.0520557,56.60980225,0.00361598,7.22E-05,0.010198189,0.010820517,0.0036167,0.001312266,-0.015058869,-1.009087086,-0.00172102,0.003292211,0.002561934,56.67861938,0.003912982,0.006554445,0.811708987,0.584012151,0.871564003,0.074676254,108.5316962,-0.002305284,-0.000395708,-0.087087438,6,6777, 
36.16374825,140.0520557,56.62633133,0.003602094,6.43E-05,0.008567682,0.00929432,0.003602668,0.001175721,-0.014810659,-1.009215474,-0.001708222,0.002648237,0.002873329,56.6783905,0.003912102,0.006555388,0.81166935,0.584067285,0.871587771,0.074880321,108.5239164,-0.002777129,-0.001578636,-0.088181302,6,6780, 
36.16374825,140.0520557,56.62633133,0.003594083,2.65E-05,0.006969627,0.0078418,0.003594181,0.000981538,-0.014792385,-1.009175062,-0.001738605,0.002290731,0.002936745,56.67817307,0.00391223,0.006555581,0.811629891,0.584122062,0.871609287,0.074940183,108.5161807,-0.001602158,-0.007556785,-0.089384899,6,6783, 
36.16374829,140.0520557,56.62633133,0.003590024,-2.82E-05,0.005402363,0.006486493,0.003590135,0.000745103,-0.014883914,-1.008976936,-0.001692283,0.002126873,0.003174545,56.67796326,0.003912902,0.00655541,0.811590791,0.5841766,0.871633204,0.074924793,108.5084906,-0.000811815,-0.010929376,-0.087930068,6,6786, 
36.16374829,140.0520557,56.62633133,0.003591015,-7.47E-05,0.003878086,0.00528588,0.003591793,0.00064158,-0.015025067,-1.008915663,-0.001492509,0.00252176,0.003092122,56.67776108,0.00391352,0.006555656,0.81155169,0.5842309,0.871692507,0.074942098,108.5008229,0.000198215,-0.009312935,-0.08658731,6,6789, 
36.16374829,140.0520557,56.39801025,0.003600028,-9.86E-05,0.004518598,0.005778206,0.003601379,0.000689614,-0.015259877,-1.008785605,-0.000928299,0.002898586,0.003085341,56.67679214,0.003913913,0.006557242,0.811512411,0.584285259,0.871861312,0.075070205,108.4931386,0.001802459,-0.004784975,-0.084180824,6,6792, 
36.16374829,140.0520557,56.39801025,0.003625982,-9.48E-05,0.005137794,0.006289171,0.003627222,0.000880782,-0.015548311,-1.008575201,-0.000709502,0.003340279,0.002976684,56.67582321,0.003914048,0.006560223,0.811473131,0.584339797,0.872142516,0.075315791,108.4854386,0.005190894,0.000763249,-0.081246011,6,6795, 
36.16374829,140.0520557,56.39801025,0.003654308,-7.17E-05,0.005739302,0.006804315,0.003655012,0.001245966,-0.015678577,-1.008255124,-0.001009831,0.00357204,0.002751926,56.67485046,0.003913439,0.006563615,0.811433613,0.584394693,0.872412056,0.075658592,108.4776901,0.005665213,0.004624188,-0.07807494,6,6798, 
36.16374829,140.0520557,56.39801025,0.003650247,-4.50E-05,0.006325285,0.00730312,0.003650525,0.001575208,-0.015554897,-1.008031607,-0.001399968,0.003467801,0.002885702,56.67387772,0.003912196,0.006566403,0.811394036,0.584449649,0.872582911,0.076019949,108.4699322,-0.000812203,0.005335201,-0.075893961,6,6801, 
36.16374829,140.0520557,56.58500671,0.003629685,-2.97E-05,0.005152616,0.006302773,0.003629806,0.001730919,-0.015385084,-1.008123279,-0.001801978,0.003327409,0.002980374,56.67354584,0.003910626,0.006568209,0.811354637,0.584504366,0.872640468,0.07634577,108.4622081,-0.004112437,0.003074609,-0.077629842,6,6804, 
36.16374829,140.0520557,56.58500671,0.003612739,-2.40E-05,0.003996607,0.005387516,0.003612819,0.001679773,-0.015361667,-1.008481264,-0.001859365,0.003070304,0.002552742,56.67321777,0.00390912,0.006569261,0.811314881,0.584559381,0.872632367,0.076615453,108.4544319,-0.003389135,0.001131501,-0.081756301,6,6807, 
36.16374829,140.0520557,56.58500671,0.003605324,-2.81E-05,0.002844589,0.004592476,0.003605434,0.001473433,-0.015461002,-1.008890152,-0.001535517,0.002663999,0.002125939,56.67289734,0.003908477,0.006570106,0.811274707,0.58461535,0.872662469,0.076791985,108.4465383,-0.001483038,-0.000814311,-0.08597555,6,6810, 
36.16374829,140.0520557,56.58500671,0.003624146,-4.22E-05,0.001695418,0.004001332,0.003624392,0.001248282,-0.015668415,-1.009196281,-0.001148183,0.002450483,0.001970042,56.67258453,0.003908978,0.006571222,0.811233878,0.584671795,0.872794438,0.076880955,108.4385559,0.003764346,-0.00283071,-0.089589536,6,6813, 
36.16374829,140.0520557,56.77302933,0.003662461,-5.34E-05,-0.001197201,0.003853539,0.00366285,0.001148616,-0.015804041,-1.009462476,-0.001132904,0.002187453,0.002102261,56.67292023,0.003910257,0.006572399,0.811193168,0.58472836,0.872984142,0.076901798,108.4305699,0.007662967,-0.002237774,-0.092185371,6,6816, 
36.16374829,140.0520557,56.77302933,0.003698571,-5.61E-05,-0.004025041,0.005466583,0.003698997,0.001229292,-0.015860241,-1.009732246,-0.001476886,0.00165707,0.001819203,56.67326736,0.003912099,0.006572664,0.81115222,0.584784985,0.873126974,0.076809348,108.4225615,0.007222056,-0.000540666,-0.094635025,6,6819, 
36.16374829,140.0520557,56.77302933,0.003720175,-6.75E-05,-0.006789669,0.007742343,0.003720788,0.001323445,-0.015922025,-1.009921432,-0.00167924,0.001256459,0.001616594,56.67362595,0.003914482,0.006571699,0.811111033,0.584842205,0.873191578,0.076584688,108.4144807,0.004320756,-0.002282668,-0.097224638,6,6822, 
36.16374829,140.0520557,56.77302933,0.003729461,-8.52E-05,-0.009494011,0.010200607,0.003730434,0.001383526,-0.015820866,-1.009810209,-0.001577378,0.001502162,0.001867768,56.67399979,0.00391695,0.00657052,0.811069846,0.584899366,0.873241946,0.076337771,108.4064052,0.001857281,-0.003532343,-0.096627928,6,6825, 
36.16374829,140.0520557,56.78336334,0.003737718,-7.63E-05,-0.012220453,0.012779508,0.003738497,0.00154023,-0.015640512,-1.009335518,-0.001212035,0.002148811,0.002139475,56.67441559,0.003918859,0.006570465,0.811029017,0.58495599,0.873359489,0.076217686,108.3984046,0.001651242,0.001772091,-0.090816587,6,6828, 
36.16374829,140.0520557,56.78336334,0.003745021,-3.25E-05,-0.014845933,0.015311041,0.003745162,0.001727349,-0.015474063,-1.008692265,-0.001094783,0.002704285,0.00225999,56.67484665,0.003919906,0.006571779,0.810988426,0.585012197,0.873546417,0.076269026,108.3904601,0.001460716,0.008767653,-0.082866833,6,6831, 
36.16374818,140.0520557,56.78336334,0.007384216,0.005371263,-0.017361954,0.019616691,0.009131107,0.001750728,-0.01543235,-1.008149147,-0.001163528,0.003162111,0.002508321,56.67528915,0.003921318,0.006572043,0.810949981,0.585065484,0.873660705,0.076212866,108.38293,0.000358507,0.009752642,-0.077126667,6,6834, 
36.16374818,140.0520557,56.78336334,0.00737838,0.005407774,-0.019781701,0.0217945,0.009147924,0.001661868,-0.015434544,-1.007781744,-0.001225194,0.003352932,0.002853343,56.6757431,0.003921984,0.006572649,0.810911953,0.585118175,0.873756672,0.076248421,108.3754839,-0.001167223,0.007302359,-0.073850796,6,6837, 
36.16374818,140.0520557,56.55710983,0.007375991,0.005435031,-0.02001535,0.022012702,0.00916214,0.001611257,-0.015461477,-1.00751555,-0.001268211,0.003288978,0.003039854,56.67543793,0.003922448,0.006573241,0.810874343,0.585170329,0.873837908,0.07630111,108.3681158,-0.000477821,0.005451392,-0.071790859,6,6840, 
36.16374818,140.0520557,56.55710983,0.007376702,0.005447171,-0.020241471,0.022221713,0.009169918,0.001563653,-0.015428569,-1.007487535,-0.001110752,0.00354502,0.003167373,56.67513275,0.003922805,0.006574088,0.810836852,0.585222125,0.873935698,0.076380681,108.3607892,0.000142068,0.002427913,-0.072474644,6,6843, 
36.16374818,140.0520557,56.55710983,0.007375926,0.005453939,-0.020473706,0.022434847,0.009173317,0.001427592,-0.015298626,-1.007629633,-0.001016836,0.003867663,0.00313502,56.67483521,0.00392276,0.006575615,0.810799539,0.585273862,0.874069683,0.076543062,108.3534807,-0.000155091,0.001353547,-0.073695347,6,6846, 
36.16374818,140.0520557,56.55710983,0.007367194,0.005463938,-0.020714616,0.022654481,0.00917225,0.001316008,-0.01512823,-1.00772953,-0.000960024,0.003786554,0.00276356,56.67453766,0.003922578,0.006577476,0.810761929,0.585326016,0.874225506,0.076740937,108.3461138,-0.001746446,0.00199987,-0.073816463,6,6849, 
36.16374818,140.0520557,56.70691299,0.007354324,0.005461487,-0.022351824,0.024156116,0.009160454,0.001284531,-0.015117405,-1.007725,-0.000941909,0.003671426,0.002350405,56.67475128,0.003922645,0.006579276,0.810723722,0.585378945,0.874392086,0.076912559,108.3386347,-0.002574056,-0.000490181,-0.074406788,6,6852, 
36.16374818,140.0520557,56.70691299,0.007347816,0.005450506,-0.023950437,0.025638289,0.009148684,0.001283558,-0.01528185,-1.00752902,-0.000978889,0.003412625,0.002058104,56.67497253,0.00392307,0.006580788,0.810684979,0.585432589,0.874556015,0.077032313,108.3310528,-0.001301542,-0.002196308,-0.073237583,6,6855, 
36.16374818,140.0520557,56.70691299,0.007357526,0.005441447,-0.025502903,0.027095029,0.009151095,0.001272501,-0.015630025,-1.007213593,-0.000970045,0.003128497,0.00180689,56.6751976,0.003924021,0.006581877,0.8106457,0.58548677,0.874715939,0.077075574,108.3233844,0.001942039,-0.001811665,-0.070397541,6,6858, 
36.16374818,140.0520557,56.70691299,0.007388897,0.005434627,-0.027002085,0.028517426,0.009172294,0.001275816,-0.016036579,-1.006815314,-0.000943482,0.003154495,0.001647771,56.6754303,0.003925256,0.006582818,0.810606241,0.585541427,0.874880994,0.077082901,108.3156595,0.006274223,-0.001364052,-0.066920444,6,6861, 
36.16374819,140.0520557,56.45483398,0.007434983,0.005442383,-0.026101612,0.027680185,0.009214039,0.001309903,-0.016366875,-1.006370783,-0.000737694,0.003064024,0.001432407,56.67481232,0.003926724,0.00658395,0.810566485,0.585596442,0.87507941,0.077081915,108.3078813,0.009217128,0.001551196,-0.062055755,6,6864, 
36.16374819,140.0520557,56.45483398,0.007486024,0.005461365,-0.025214026,0.026862877,0.009266448,0.001392399,-0.016438164,-1.006160498,-0.000577979,0.002851913,0.001290324,56.67419434,0.003928764,0.006585233,0.81052649,0.585651815,0.875330285,0.077038367,108.3000536,0.010208175,0.003796373,-0.05964582,6,6867, 
36.16374819,140.0520557,56.45483398,0.007538492,0.005471642,-0.024350462,0.026071301,0.009314919,0.001335322,-0.016349217,-1.006347299,-0.000597214,0.002463749,0.001378788,56.67357254,0.003931515,0.006586222,0.810486436,0.585707247,0.875601444,0.076909114,108.2922157,0.010493562,0.002055325,-0.061921287,6,6870, 
36.16374819,140.0520557,56.45483398,0.007588369,0.0054656,-0.023533246,0.025323305,0.009351798,0.001173476,-0.016270254,-1.006759882,-0.000577159,0.002178585,0.001369195,56.67295074,0.003934949,0.006586718,0.810446322,0.58576256,0.875872859,0.076683281,108.2843842,0.009975329,-0.001208298,-0.066460773,6,6873, 
36.16374819,140.0520557,56.54471588,0.007637617,0.005450945,-0.02360853,0.025404895,0.009383282,0.001048453,-0.016236477,-1.007108688,-0.000721443,0.002120866,0.001086735,56.67263412,0.003938638,0.006586842,0.810406208,0.585818291,0.876126611,0.076409169,108.2765135,0.009849608,-0.002931047,-0.070024654,6,6876, 
36.16374819,140.0520557,56.54471588,0.007677024,0.005440072,-0.023708085,0.025506947,0.009409096,0.001038595,-0.016198652,-1.007277012,-0.000870992,0.002460321,0.000959393,56.6723175,0.003941823,0.006586876,0.810365677,0.585874319,0.876338336,0.07617626,108.2685875,0.007881477,-0.002174519,-0.071129009,6,6879, 
36.16374819,140.0520557,56.54471588,0.007697686,0.00545015,-0.02381938,0.025618769,0.009431782,0.001271932,-0.016075987,-1.007221222,-0.001114955,0.002807168,0.001251721,56.67200089,0.003944027,0.006587014,0.810325146,0.585930109,0.876493965,0.076041323,108.2606843,0.004132345,0.00201552,-0.069489643,6,6882, 
36.16374819,140.0520557,56.54471588,0.007708492,0.005482926,-0.023928523,0.025730479,0.009459563,0.00159068,-0.015967824,-1.007182837,-0.001259806,0.003068198,0.001703691,56.67168427,0.003945337,0.006587202,0.810285449,0.585985243,0.876594144,0.075991917,108.2528986,0.002161235,0.006555188,-0.068440601,6,6885, 
36.16374819,140.0520557,56.51888657,0.00772173,0.005530165,-0.023798073,0.025623351,0.009497781,0.001872622,-0.016003175,-1.007278919,-0.001525363,0.002654468,0.002306267,56.67128372,0.003946509,0.006586858,0.810246289,0.586039186,0.87663594,0.075918405,108.2452594,0.002647564,0.009447791,-0.069475338,6,6888, 
36.16374819,140.0520557,56.51888657,0.007745343,0.005568258,-0.023686036,0.025534764,0.009539174,0.002003295,-0.016119521,-1.00730598,-0.001519291,0.002449864,0.002655915,56.67088318,0.003948126,0.006585796,0.810208023,0.586092293,0.876640862,0.07575431,108.237757,0.00472267,0.007618569,-0.071144268,6,6891, 
36.16374819,140.0520557,56.51888657,0.007781396,0.005592551,-0.023595165,0.025466813,0.009582627,0.001896624,-0.016252875,-1.007316947,-0.001144144,0.002642235,0.002832806,56.67048264,0.003950038,0.006585108,0.810169935,0.586144745,0.876700608,0.075587347,108.2303275,0.007210493,0.004858717,-0.072130941,6,6894, 
36.16374819,140.0520557,56.51888657,0.00783284,0.005630246,-0.02352163,0.025422827,0.009646401,0.001718066,-0.016391996,-1.00720644,-0.000957109,0.002785038,0.003115087,56.67008591,0.003952028,0.006585234,0.810132265,0.58619678,0.876841182,0.075467452,108.2229652,0.010288805,0.007539164,-0.069833986,6,6897, 
36.16374819,140.0520557,56.69348145,0.007891599,0.005674791,-0.025072414,0.026890641,0.009720113,0.001651353,-0.016504768,-1.007017374,-0.000830132,0.002926836,0.003165023,56.67028427,0.003953963,0.006585887,0.810094833,0.586248517,0.877026909,0.075387737,108.2156469,0.011751726,0.008908972,-0.067422442,6,6900, 
36.16374819,140.0520557,56.69348145,0.007942086,0.005714879,-0.026571631,0.028315864,0.009784507,0.001652522,-0.016445981,-1.006958842,-0.001087499,0.00284556,0.002916476,56.67049026,0.003955739,0.006586454,0.810057282,0.586300433,0.87719402,0.075317101,108.2083041,0.010097444,0.00801767,-0.067027599,6,6903, 
36.16374819,140.0520557,56.69348145,0.007967777,0.005739643,-0.02803053,0.029700834,0.009819825,0.001615411,-0.016163861,-1.007010698,-0.001345701,0.002762151,0.002550054,56.67070007,0.003957299,0.006586383,0.810019195,0.586353004,0.877287355,0.075224458,108.2008641,0.005138099,0.004952647,-0.067900501,6,6906, 
36.16374819,140.0520557,56.69348145,0.007968018,0.005748383,-0.029456563,0.03105193,0.009825132,0.001578619,-0.015804768,-1.007205963,-0.001816711,0.002764601,0.002166547,56.67091751,0.003958401,0.00658552,0.80998069,0.58640635,0.877276299,0.075121895,108.1933241,4.84E-05,0.001748044,-0.07021004,6,6909, 
36.16374819,140.0520557,56.4641304,0.007948101,0.005752049,-0.028725019,0.030354325,0.009811135,0.001571153,-0.015501772,-1.007494211,-0.002021735,0.003035047,0.002079952,56.67036438,0.003958727,0.006584174,0.809941649,0.586460054,0.877168423,0.075059438,108.185715,-0.003983513,0.000733297,-0.072837412,6,6912, 
36.16374819,140.0520557,56.4641304,0.007917213,0.005763939,-0.028038783,0.029699808,0.009793123,0.001637837,-0.015279248,-1.00778091,-0.002001199,0.003384127,0.001977214,56.66980743,0.003958289,0.0065831,0.809902668,0.586514115,0.877034148,0.075086375,108.1780774,-0.006177381,0.002377983,-0.075028956,6,6915, 
36.16374819,140.0520557,56.4641304,0.007891621,0.005787503,-0.027394691,0.029090239,0.009786361,0.001658872,-0.015161786,-1.007770777,-0.001903293,0.003528274,0.001975491,56.66925049,0.003957437,0.006582507,0.809863508,0.586568177,0.876916923,0.075184147,108.1704284,-0.005118519,0.004712928,-0.074323237,6,6918, 
36.16374819,140.0520557,56.4641304,0.007875063,0.005806815,-0.026777329,0.028508965,0.009784464,0.001593386,-0.015162685,-1.00747776,-0.001955762,0.003587419,0.002084619,56.66868973,0.003956413,0.006582111,0.809824407,0.586622179,0.876806291,0.075310999,108.1627891,-0.003311574,0.003862385,-0.071666956,6,6921, 
36.16374819,140.0520557,56.52921677,0.007860551,0.005815858,-0.026781343,0.028510573,0.009778162,0.001518236,-0.01516386,-1.007142305,-0.001807347,0.003525079,0.002485717,56.66835022,0.003955467,0.006581808,0.809785604,0.586675584,0.876709613,0.075436266,108.1552251,-0.002902582,0.00180845,-0.06879995,6,6924, 
36.16374819,140.0520557,56.52921677,0.007850645,0.00582208,-0.026780397,0.028508225,0.009773906,0.00151834,-0.015147986,-1.006627083,-0.001482516,0.003441501,0.002760102,56.66801071,0.003955022,0.006581875,0.809747398,0.586728394,0.876681033,0.075539293,108.1477564,-0.001980975,0.001244534,-0.064037941,6,6927, 
36.16374819,140.0520557,56.52921677,0.007850329,0.005829387,-0.026764758,0.028494941,0.009778007,0.001560834,-0.015081325,-1.006098032,-0.001464367,0.003635123,0.00245263,56.6676712,0.003954717,0.006582372,0.809709132,0.586781204,0.876701697,0.075658175,108.1402839,-6.31E-05,0.001461383,-0.059149697,6,6930, 
36.16374819,140.0520557,56.52921677,0.007832346,0.005839791,-0.026733533,0.028462793,0.00976979,0.001588797,-0.014956472,-1.005772829,-0.001408595,0.003590612,0.001797992,56.6673317,0.003954308,0.006583059,0.80967015,0.586835027,0.876732884,0.075800561,108.1326694,-0.003596798,0.002080865,-0.055352099,6,6933, 
36.16374819,140.0520557,56.26163483,0.007798761,0.00584499,-0.02420339,0.026091927,0.009746003,0.001536368,-0.014935656,-1.005642176,-0.001295657,0.003083676,0.001517479,56.66608429,0.003954573,0.006583518,0.809630513,0.586889744,0.876788161,0.075866094,108.1249274,-0.006717026,0.001039777,-0.053807653,6,6936, 
36.16374819,140.0520557,56.26163483,0.007778718,0.005834862,-0.021752357,0.023826857,0.009723892,0.00151883,-0.015031764,-1.005723953,-0.001088103,0.002781156,0.001430015,56.66482925,0.003955889,0.00658371,0.809590459,0.586944818,0.876889349,0.075816582,108.1171232,-0.004008442,-0.002025586,-0.05579203,6,6939, 
36.16374819,140.0520557,56.26163483,0.007774692,0.005824855,-0.019395448,0.021692353,0.009714668,0.001569157,-0.015157806,-1.006008387,-0.001148687,0.003116646,0.001554304,56.6635704,0.00395728,0.006584076,0.809550583,0.586999893,0.877011698,0.075771752,108.1093311,-0.000805333,-0.00200161,-0.059001751,6,6942, 
36.16374819,140.0520557,56.26163483,0.007772585,0.005837386,-0.017136224,0.019701226,0.009720502,0.001560545,-0.015366181,-1.006469131,-0.001305948,0.00341981,0.001869434,56.66230011,0.00395787,0.006584689,0.809511006,0.587054551,0.877103121,0.075817464,108.1015984,-0.000421241,0.002506234,-0.061784886,6,6945, 
36.16374819,140.0520557,56.61909866,0.007771171,0.005861213,-0.01829453,0.020722807,0.0097337,0.001480687,-0.015608687,-1.007171154,-0.001059331,0.003393556,0.002423719,56.66223526,0.003958253,0.006585591,0.809471965,0.587108195,0.877207617,0.0759009,108.0939961,-0.000283033,0.004765622,-0.06742572,6,6948, 
36.16374819,140.0520557,56.61909866,0.007790819,0.005875485,-0.019452928,0.021763147,0.009757981,0.0013838,-0.015734244,-1.007838249,-0.000833125,0.00342349,0.00299388,56.66217804,0.003958988,0.006586972,0.809433877,0.587160766,0.877380225,0.075982503,108.0865575,0.0039296,0.002854381,-0.07487686,6,6951, 
36.16374809,140.0520555,56.61909866,0.019786505,0.003078953,-0.020621233,0.02874406,0.020024628,0.001284022,-0.015721321,-1.008256674,-0.000534338,0.003430871,0.003181429,56.66212845,0.003959839,0.006588886,0.809399843,0.587207735,0.877610561,0.076083344,108.0799116,0.006582946,0.001366265,-0.079526193,6,6954, 
36.16374809,140.0520555,56.61909866,0.01981682,0.003081467,-0.021786222,0.029611505,0.020054969,0.001152388,-0.015652426,-1.008465767,-0.000515377,0.003605657,0.003308931,56.66208649,0.00396074,0.006591254,0.809365928,0.587254345,0.877886482,0.076209627,108.0733071,0.005693331,-2.98E-05,-0.081506349,6,6957, 
36.16374809,140.0520555,56.75753403,0.019835802,0.003074487,-0.024222793,0.031458786,0.020072656,0.001016616,-0.015590581,-1.008497,-0.000708627,0.003760883,0.003379245,56.66252136,0.003961183,0.006593688,0.809332192,0.587300777,0.878137648,0.076382791,108.0667315,0.003796473,-0.001396157,-0.081581257,6,6960, 
36.16374809,140.0520555,56.75753403,0.019837353,0.003063672,-0.026594087,0.033318946,0.020072535,0.000990657,-0.015502918,-1.00828433,-0.000566525,0.004007977,0.00348342,56.66296768,0.003961183,0.006596365,0.809298575,0.587347031,0.878381631,0.076613211,108.060181,0.000310212,-0.002162896,-0.079328589,6,6963, 
36.16374809,140.0520555,56.75753403,0.019841362,0.003060085,-0.028890431,0.035180972,0.02007595,0.001077117,-0.015523072,-1.007916451,-0.000358461,0.003972776,0.003508841,56.66342163,0.003961227,0.006599554,0.809265196,0.587393224,0.878675887,0.076873776,108.0536523,0.000801593,-0.000717275,-0.075706035,6,6966, 
36.16374809,140.0520555,56.75753403,0.019860324,0.003063221,-0.03110691,0.037033169,0.020095168,0.001179886,-0.015641022,-1.007440686,-0.000255523,0.003566434,0.003237393,56.66388702,0.003961945,0.006602734,0.8092314,0.587439537,0.879014754,0.077071631,108.047084,0.003792346,0.000627104,-0.071447097,6,6969, 
36.16374807,140.0520556,56.29986191,0.019883363,0.003056619,-0.028985785,0.03528267,0.020116934,0.001294627,-0.015768822,-1.007004976,-0.000107627,0.003316785,0.002811784,56.66280365,0.003963506,0.006605691,0.809197187,0.587486625,0.879389591,0.077177076,108.0404151,0.004607975,-0.001320463,-0.068496443,6,6972, 
36.16374807,140.0520556,56.29986191,0.019900987,0.003044878,-0.026926085,0.03362045,0.020132575,0.001312451,-0.015755471,-1.006816387,-1.19E-05,0.00306655,0.002827939,56.66171265,0.00396575,0.006608529,0.809162676,0.58753413,0.879799334,0.077211797,108.033687,0.003524944,-0.002348084,-0.066769369,6,6975, 
36.16374807,140.0520556,56.29986191,0.019916872,0.003030852,-0.024931623,0.032053918,0.020146162,0.001183437,-0.015633769,-1.006655693,-0.000147715,0.002883277,0.002873511,56.66061401,0.003968404,0.006611009,0.809128225,0.587581575,0.880203389,0.077184209,108.0269678,0.003176659,-0.002805267,-0.06468004,6,6978, 
36.16374807,140.0520556,56.29986191,0.019928293,0.003004806,-0.022998359,0.030579245,0.020153554,0.000967378,-0.015501157,-1.006529808,-0.000541686,0.002861184,0.00266153,56.65951157,0.003970877,0.006612802,0.809093654,0.587629199,0.88053163,0.077127465,108.0202238,0.002284482,-0.005209118,-0.063229665,6,6981, 
36.16374807,140.0520556,56.54781342,0.019923124,0.002969121,-0.023433322,0.030900925,0.020143152,0.00077655,-0.01539836,-1.006651521,-0.000905807,0.002853535,0.002102083,56.65924454,0.003972818,0.006613811,0.809058487,0.587677598,0.88075125,0.077068199,108.0133678,-0.001033664,-0.007137034,-0.063821919,6,6984, 
36.16374807,140.0520556,56.54781342,0.019907743,0.002932384,-0.023865923,0.031216973,0.020122552,0.00072444,-0.015405321,-1.006993055,-0.001297434,0.002612758,0.001748924,56.65898514,0.003974447,0.006613877,0.809022546,0.587726891,0.880862537,0.076975278,108.0063763,-0.003076494,-0.007347371,-0.066798061,6,6987, 
36.16374807,140.0520556,56.54781342,0.019892907,0.002893386,-0.024308208,0.031543437,0.020102224,0.000805184,-0.015406527,-1.007449269,-0.001865436,0.002588305,0.001768001,56.65872574,0.00397564,0.006612782,0.808986604,0.587776601,0.880836449,0.076845043,107.9993457,-0.002967,-0.007799689,-0.071752734,6,6990, 
36.16374807,140.0520556,56.54781342,0.019872651,0.002851083,-0.024770182,0.031884366,0.020076128,0.000803628,-0.015305215,-1.00769496,-0.002056747,0.002869405,0.002197731,56.65847015,0.003976018,0.006611104,0.808950782,0.587825775,0.880701736,0.076750527,107.9923731,-0.004051432,-0.008460507,-0.074257091,6,6993, 
36.16374807,140.0520556,56.55710983,0.019860731,0.00281364,-0.025326144,0.032307565,0.020059043,0.000574117,-0.015287627,-1.008092403,-0.001907206,0.003050195,0.002482941,56.6582489,0.003975905,0.00660972,0.808915555,0.587874293,0.880561276,0.076720581,107.985502,-0.002383426,-0.007488739,-0.07719218,6,6996, 
36.16374807,140.0520556,56.55710983,0.019872833,0.002775957,-0.025889196,0.032754937,0.020065778,0.000311524,-0.015361769,-1.008572578,-0.001833398,0.002881314,0.002822404,56.65803146,0.00397595,0.006608569,0.808880806,0.587922096,0.88045309,0.076690881,107.9787293,0.002419904,-0.007536594,-0.081586875,6,6999, 
36.16374807,140.0520556,56.55710983,0.019892178,0.002723482,-0.026466826,0.033220611,0.020077752,0.000188543,-0.015316977,-1.008713484,-0.002005073,0.002368579,0.003048484,56.65781784,0.003976618,0.006606815,0.808846474,0.587969363,0.880330994,0.076562237,107.9720336,0.003868952,-0.010494918,-0.083758071,6,7002, 
36.16374807,140.0520556,56.55710983,0.019900002,0.002655746,-0.027048087,0.033684745,0.02007643,0.000288085,-0.015179067,-1.008517861,-0.002133432,0.001924699,0.003263977,56.65760803,0.003978037,0.006604053,0.808812439,0.588016152,0.880166161,0.076295535,107.9654012,0.001564607,-0.013547227,-0.083002925,6,7005, 
36.16374807,140.0520556,56.56847763,0.019898633,0.002592645,-0.027724266,0.03422444,0.020066823,0.000561636,-0.015155751,-1.008092523,-0.002004872,0.001852421,0.003571762,56.65743637,0.003979982,0.006600909,0.808778822,0.588062406,0.880001503,0.075953752,107.958846,-0.000273809,-0.012620129,-0.079305224,6,7008, 
36.16374807,140.0520556,56.56847763,0.01990399,0.002558499,-0.028371824,0.03475162,0.020067753,0.000867479,-0.015280156,-1.007541895,-0.001693435,0.002158029,0.003397017,56.65727234,0.003982017,0.006598382,0.808745384,0.588108599,0.879900038,0.075645076,107.9523087,0.001071379,-0.006829269,-0.073210642,6,7011, 
36.16374807,140.0520556,56.56847763,0.019917633,0.002558037,-0.028979125,0.035256848,0.020081227,0.0011065,-0.015497837,-1.007199287,-0.001535272,0.002379504,0.003236833,56.65711212,0.003983861,0.006596718,0.808711469,0.588155031,0.879865799,0.075412572,107.9457178,0.002728477,-9.23E-05,-0.06861268,6,7014, 
36.16374807,140.0520556,56.56847763,0.019932086,0.002567587,-0.02955395,0.035739565,0.020096779,0.001194491,-0.01565454,-1.007087946,-0.001558628,0.002834827,0.003221989,56.65695572,0.00398512,0.00659569,0.808677554,0.588201702,0.879851027,0.075277424,107.9391055,0.002890259,0.001909971,-0.067185059,6,7017, 
36.16374807,140.0520556,56.87014008,0.019943487,0.002577903,-0.032917969,0.038574356,0.020109407,0.001172225,-0.015733032,-1.007005692,-0.001429895,0.003140399,0.002939557,56.65782928,0.003985685,0.00659533,0.808643341,0.58824867,0.879851512,0.075251887,107.9324464,0.002280459,0.002063211,-0.066178359,6,7020, 
36.16374807,140.0520556,56.87014008,0.019954933,0.002589127,-0.036179557,0.041398832,0.0201222,0.001114578,-0.015779451,-1.006917357,-0.001170426,0.003017036,0.002894063,56.65871429,0.003986351,0.0065955,0.808609009,0.588295996,0.879907649,0.075253135,107.9257464,0.002289087,0.00224483,-0.065230951,6,7023, 
36.16374807,140.0520556,56.87014008,0.019976582,0.002586782,-0.039341938,0.044198907,0.020143368,0.001068089,-0.01574105,-1.006772757,-0.000976423,0.002754765,0.00243447,56.65961075,0.003987736,0.006595847,0.8085742,0.588343799,0.88002876,0.075200193,107.9189696,0.004330114,-0.000469148,-0.065048791,6,7026, 
36.16374807,140.0520556,56.87014008,0.019998144,0.002564944,-0.042411774,0.046960231,0.020161962,0.000956923,-0.015633997,-1.006639838,-0.000581134,0.00261576,0.001821959,56.66052246,0.003989953,0.006596501,0.808538616,0.588392675,0.88023428,0.075092067,107.9120409,0.004312426,-0.004367549,-0.064892024,6,7029, 
36.16374807,140.0520556,56.50235748,0.020019792,0.002528118,-0.041971497,0.04657027,0.020178787,0.000637113,-0.015597019,-1.006654263,-0.000424869,0.002417597,0.001797766,56.66019821,0.003992912,0.006597468,0.808502555,0.588442206,0.880518764,0.074937055,107.9050189,0.004329637,-0.007365078,-0.064921588,6,7032, 
36.16374807,140.0520556,56.50235748,0.020051127,0.002479079,-0.041553002,0.046204388,0.0202038,0.000290985,-0.015610371,-1.006653666,-0.000680234,0.002152715,0.001777375,56.65987015,0.003996267,0.006597994,0.808466434,0.588491797,0.880789152,0.074715774,107.8979868,0.006266758,-0.009807881,-0.064766139,6,7035, 
36.16374807,140.0520556,56.50235748,0.020076904,0.002415491,-0.041154701,0.045854401,0.020221689,0.000122686,-0.015627883,-1.006412745,-0.000904188,0.002120642,0.001763927,56.65953827,0.003999569,0.006597818,0.808430314,0.588541448,0.880990962,0.074452045,107.8909489,0.005155802,-0.012717586,-0.062679499,6,7038, 
36.16374807,140.0520556,56.50235748,0.020088993,0.002361508,-0.040766314,0.045508644,0.020227317,0.000317932,-0.015629625,-1.006244898,-0.000861417,0.002247059,0.002187769,56.65921021,0.004002647,0.006597526,0.808394372,0.588590622,0.88116705,0.074200913,107.8839672,0.00241752,-0.010796621,-0.060739726,6,7041, 
36.16374807,140.0520556,56.76166534,0.020101186,0.002340753,-0.042799555,0.047342779,0.020237016,0.00077243,-0.015604993,-1.006431341,-0.000633245,0.002439146,0.002451418,56.65975952,0.004005609,0.006597741,0.808359146,0.5886392,0.881382251,0.073993884,107.8770894,0.002438471,-0.004150968,-0.061925143,6,7044, 
36.16374807,140.0520556,56.76166534,0.020120358,0.00234821,-0.044781815,0.049150319,0.020256922,0.001187447,-0.015639376,-1.006864786,-0.000665742,0.002689659,0.00239077,56.66032028,0.004008269,0.006598477,0.80832386,0.588687479,0.881625525,0.073849796,107.8702357,0.003834605,0.001491547,-0.06601999,6,7047, 
36.16374807,140.0520556,56.76166534,0.020131569,0.002379003,-0.046729285,0.050936881,0.020271649,0.001637371,-0.01577354,-1.00727272,-0.000882516,0.002885448,0.002096524,56.66088867,0.004010294,0.006599293,0.808288395,0.588736176,0.881833232,0.073770414,107.8633318,0.002242014,0.006158415,-0.069834687,6,7050, 
36.16374807,140.0520556,56.76166534,0.020127028,0.002425633,-0.048642185,0.052697657,0.020272665,0.002027497,-0.015885551,-1.007850647,-0.001361475,0.002812627,0.002039683,56.66146469,0.004011679,0.006599498,0.808252692,0.588785231,0.881941265,0.073709495,107.8563787,-0.000908017,0.00932603,-0.075419404,6,7053, 
36.16374807,140.0520556,56.44036865,0.020119837,0.002468651,-0.047542814,0.051683859,0.020270719,0.002128205,-0.01599895,-1.008431435,-0.001911811,0.002696832,0.001885374,56.66095734,0.004012497,0.006598526,0.808216751,0.588834405,0.881901982,0.073621867,107.8493982,-0.001438528,0.00860377,-0.081674553,6,7056, 
36.16374807,140.0520556,56.44036865,0.020120818,0.002499956,-0.046518359,0.050744998,0.02027553,0.001999071,-0.016226951,-1.008756161,-0.002023654,0.00267185,0.001498846,56.66044235,0.004012966,0.006596787,0.80818063,0.588884234,0.88176793,0.073515391,107.8423446,0.000196069,0.006260905,-0.085422494,6,7059, 
36.16374807,140.0520556,56.44036865,0.020144314,0.00252721,-0.04555494,0.049874169,0.020302221,0.001728749,-0.016527776,-1.00886941,-0.00200109,0.002531359,0.00145375,56.65992737,0.004013532,0.006594838,0.808143973,0.588934422,0.881621044,0.07338621,107.8352216,0.004698992,0.005450837,-0.0864105,6,7062, 
36.16374807,140.0520556,56.44036865,0.020195061,0.00254663,-0.044637445,0.049059427,0.020354995,0.001416335,-0.016723976,-1.008709192,-0.001786044,0.002450243,0.001673903,56.65940857,0.004014499,0.006592964,0.808107436,0.58898443,0.881508286,0.073224817,107.828123,0.010149658,0.003883973,-0.084956147,6,7065, 
36.16374807,140.0520556,56.51475525,0.020257844,0.002553232,-0.044444252,0.048910027,0.02041811,0.001148231,-0.016626984,-1.008255482,-0.001600424,0.002747601,0.001851912,56.65914154,0.004015546,0.006591654,0.808071315,0.589034081,0.881453175,0.073093584,107.8210859,0.012556493,0.001320459,-0.080651745,6,7068, 
36.16374807,140.0520556,56.51475525,0.020308658,0.002560015,-0.04424632,0.048751739,0.020469374,0.001009172,-0.016280554,-1.007532239,-0.001467978,0.003054268,0.002050788,56.6588707,0.004016221,0.00659111,0.808035433,0.589083374,0.881443823,0.073048105,107.8140987,0.010162741,0.001356497,-0.072689511,6,7071, 
36.16374827,140.0520552,56.51475525,0.015129586,0.001161985,-0.0440249,0.04656658,0.015174142,0.00092659,-0.015777007,-1.006698728,-0.00107609,0.003069738,0.002285975,56.65859985,0.004015696,0.006592899,0.80799973,0.589132309,0.881569669,0.073270825,107.8071588,0.004464105,0.000748713,-0.063650712,6,7074, 
36.16374827,140.0520552,56.51475525,0.015138003,0.001151377,-0.043774161,0.046332084,0.015181726,0.000899557,-0.015298334,-1.006150365,-0.000618275,0.003108401,0.002165779,56.65833282,0.004015744,0.006595586,0.807964146,0.589181125,0.881817283,0.073501074,107.8002382,0.001683474,-0.002121497,-0.058770999,6,7077, 
36.16374827,140.0520552,56.60463333,0.015134766,0.001133207,-0.04435033,0.046875335,0.015177131,0.000969075,-0.014913268,-1.006053448,-0.000409516,0.003308235,0.002083385,56.65836716,0.004016041,0.006599124,0.807928383,0.58923018,0.882160394,0.073765965,107.7932838,-0.000647396,-0.003634129,-0.058253463,6,7080, 
36.16374827,140.0520552,56.60463333,0.015107649,0.001117782,-0.044912525,0.04739858,0.015148944,0.001051748,-0.014624194,-1.006034136,-0.000377225,0.003259836,0.002061014,56.6584053,0.004016363,0.006603018,0.807892442,0.589279294,0.882538172,0.074052839,107.7863119,-0.005423293,-0.003084823,-0.057558153,6,7083, 
36.16374827,140.0520552,56.60463333,0.015059794,0.001099496,-0.045460165,0.047902326,0.015099877,0.001184162,-0.014390465,-1.005934715,-0.000249597,0.00336981,0.001808519,56.65844727,0.004016738,0.006607122,0.807856381,0.589328706,0.882938987,0.07434921,107.7793045,-0.009571224,-0.003657244,-0.05673432,6,7086, 
36.16374827,140.0520552,56.60463333,0.015002877,0.001082974,-0.045992952,0.048390193,0.015041914,0.001341398,-0.014256707,-1.005698204,-0.000439942,0.00358575,0.001409419,56.65849304,0.004016735,0.006611408,0.807819843,0.589378774,0.883330841,0.074693713,107.7722046,-0.01138331,-0.003304504,-0.054631855,6,7089, 
36.16374827,140.0520552,56.73997116,0.01493337,0.001076696,-0.047763471,0.050055109,0.014972135,0.00146355,-0.014226417,-1.005344868,-0.000924641,0.003532542,0.001363058,56.65899658,0.004016066,0.006615134,0.807782888,0.589429259,0.883626007,0.075062551,107.7650379,-0.013901472,-0.00125562,-0.050565086,6,7092, 
36.16374827,140.0520552,56.73997116,0.014855034,0.001062261,-0.04946389,0.051657302,0.014892966,0.001453255,-0.014299717,-1.005273461,-0.000952878,0.003462173,0.001553951,56.65951157,0.004015147,0.006618252,0.807746172,0.589479685,0.883847788,0.07541338,107.7578928,-0.01566726,-0.00288697,-0.050246686,6,7095, 
36.16374827,140.0520552,56.73997116,0.014796416,0.001038151,-0.051114451,0.053223104,0.014832791,0.001272902,-0.014427048,-1.005492687,-0.000879933,0.003119662,0.001639291,56.66003036,0.00401468,0.00662111,0.807709515,0.589529753,0.884076145,0.075704503,107.7507843,-0.011723578,-0.004822001,-0.052992098,6,7098, 
36.16374827,140.0520552,56.73997116,0.01476546,0.001002386,-0.052731909,0.054769314,0.014799446,0.000990238,-0.014583309,-1.005776048,-0.001001937,0.002673072,0.001552583,56.66055679,0.004014974,0.00662334,0.807673037,0.58957994,0.884297649,0.075882746,107.7436759,-0.006191298,-0.007153045,-0.056338083,6,7101, 
36.16374827,140.0520552,56.51062012,0.014739179,0.000945716,-0.052187625,0.054237312,0.014769488,0.000746511,-0.014694915,-1.00612998,-0.001070829,0.002399397,0.001694749,56.66030884,0.004015855,0.006624844,0.80763638,0.589629889,0.884491857,0.075957641,107.7365768,-0.005256131,-0.011333987,-0.060581315,6,7104, 
36.16374827,140.0520552,56.51062012,0.014711868,0.000887546,-0.051687669,0.053747948,0.014738616,0.000691861,-0.014734853,-1.006592274,-0.001145811,0.002393956,0.001759582,56.66005707,0.004016916,0.006626,0.807600081,0.589679778,0.884665718,0.075992148,107.7295069,-0.005462199,-0.011633892,-0.06493292,6,7107, 
36.16374827,140.0520552,56.51062012,0.014684158,0.000846,-0.051231839,0.053301421,0.014708509,0.000829454,-0.01476868,-1.007002234,-0.001251993,0.002789835,0.001805895,56.65980911,0.004017449,0.00662726,0.807563663,0.589729428,0.884813751,0.076082392,107.7224516,-0.005541831,-0.008309204,-0.068221718,6,7110, 
36.16374827,140.0520552,56.51062012,0.014649397,0.00083652,-0.050814129,0.052890267,0.014673261,0.00116429,-0.014888841,-1.007371783,-0.001234281,0.002776954,0.001818998,56.65955734,0.004017533,0.006628715,0.807527483,0.589779139,0.884949232,0.076227402,107.7154072,-0.006952405,-0.00189608,-0.070581168,6,7113, 
36.16374827,140.0520552,56.63149643,0.014622318,0.000842832,-0.051553365,0.053593581,0.014646588,0.001440315,-0.015090992,-1.007693887,-0.001445531,0.002654683,0.001861283,56.65971756,0.004017611,0.006629874,0.807491243,0.58982873,0.885057152,0.076352961,107.7083696,-0.005415887,0.001262419,-0.073783152,6,7116, 
36.16374827,140.0520552,56.63149643,0.014606711,0.000845549,-0.052293468,0.054301729,0.014631163,0.001574309,-0.015354317,-1.007853031,-0.001585915,0.002522109,0.002090059,56.65988159,0.004017689,0.006630491,0.807455182,0.589878023,0.885114935,0.076441436,107.7013714,-0.003121436,0.000543404,-0.07640098,6,7119, 
36.16374827,140.0520552,56.63149643,0.014596887,0.000849444,-0.053031951,0.055010713,0.014621582,0.001575626,-0.015535135,-1.007745385,-0.001552487,0.002168815,0.002547364,56.66004562,0.004018186,0.00663064,0.807419658,0.58992666,0.885157623,0.07645886,107.6944696,-0.001964569,0.000778962,-0.075437747,6,7122, 
36.16374827,140.0520552,56.63149643,0.014597065,0.00084341,-0.053751361,0.055704528,0.01462141,0.001436062,-0.015464339,-1.00722456,-0.001327824,0.002028016,0.002797559,56.66021347,0.004019378,0.006630682,0.80738461,0.589974582,0.885237618,0.076403982,107.6876657,3.55E-05,-0.001206689,-0.070798106,6,7125, 
36.16374827,140.0520552,56.54677963,0.014600676,0.000826593,-0.053645886,0.055603454,0.014624056,0.001238126,-0.015296315,-1.0067904,-0.000984379,0.002339884,0.002875672,56.66009521,0.004020819,0.006631423,0.807349801,0.590022147,0.885399165,0.076372868,107.6809112,0.000722319,-0.003363393,-0.06668207,6,7128, 
36.16374827,140.0520552,56.54677963,0.01459913,0.000818986,-0.0535313,0.055492391,0.014622083,0.001115518,-0.015186301,-1.006608486,-0.000705459,0.002615144,0.002956532,56.65997696,0.00402213,0.006633225,0.807315111,0.590069592,0.885650036,0.076425491,107.6741765,-0.000309303,-0.001521416,-0.063633934,6,7131, 
36.16374827,140.0520552,56.54677963,0.014593884,0.000816043,-0.053412598,0.055376466,0.014616682,0.001023544,-0.015151093,-1.006496429,-0.000611058,0.002550017,0.003263763,56.6598587,0.004023509,0.006635558,0.807280719,0.59011662,0.885954619,0.076507341,107.6675008,-0.001049027,-0.000588536,-0.061739538,6,7134, 
36.16374827,140.0520552,56.54677963,0.014593205,0.000798912,-0.053295221,0.055262831,0.014615057,0.000930897,-0.015226032,-1.006326079,-0.000588802,0.002487713,0.003311274,56.65974045,0.004025105,0.006637915,0.807246566,0.590163291,0.886276166,0.076570218,107.6608742,-0.00013575,-0.003426235,-0.060810022,6,7137, 
36.16374827,140.0520552,56.55091476,0.0145796,0.000772119,-0.053222127,0.055188366,0.014600031,0.000955512,-0.015220997,-1.006112576,-0.000284686,0.002428471,0.003259307,56.65963745,0.004027066,0.006640512,0.807212412,0.590209961,0.88664457,0.076615774,107.6542475,-0.001133502,-0.005126219,-0.059245106,6,7140, 
36.16374827,140.0520552,56.55091476,0.014575884,0.000751909,-0.053150162,0.055117706,0.014595265,0.001043545,-0.015232399,-1.005786896,-0.000154969,0.002662149,0.002882703,56.65953445,0.004029167,0.006643678,0.807177961,0.590257108,0.887075111,0.076687343,107.6475568,-0.000743166,-0.004042085,-0.056015372,6,7143, 
36.16374827,140.0520552,56.55091476,0.014571377,0.000745394,-0.053070731,0.055039833,0.01459043,0.001158474,-0.015290387,-1.00545454,-0.00030328,0.002648859,0.002234564,56.65943146,0.004031025,0.006646994,0.807142615,0.590305209,0.887502993,0.076792708,107.6407176,-0.00090149,-0.001302928,-0.052165378,6,7146, 
36.16374827,140.0520552,56.55091476,0.014549741,0.000741831,-0.052980501,0.054947054,0.01456864,0.001311498,-0.015314728,-1.005324602,-0.000581389,0.002775043,0.001790937,56.65932846,0.004032448,0.006649971,0.807106733,0.590354502,0.88786976,0.076916647,107.633732,-0.004327387,-0.000712715,-0.050777379,6,7149, 
36.16374827,140.0520552,56.38148117,0.014519611,0.000736053,-0.05131577,0.053335439,0.014538256,0.001394234,-0.015340643,-1.005400419,-0.000832079,0.00289194,0.001748365,56.65864563,0.004033231,0.006652595,0.807070255,0.590404212,0.888160767,0.077076475,107.6266677,-0.006025836,-0.001155656,-0.051729292,6,7152, 
36.16374827,140.0520552,56.38148117,0.014497849,0.000731961,-0.049713437,0.05178947,0.014516315,0.001295612,-0.01543315,-1.005712509,-0.001197911,0.002942282,0.00188341,56.65795898,0.004033393,0.006654721,0.807033956,0.590453863,0.888363616,0.077260052,107.6196211,-0.004352465,-0.000818323,-0.054384425,6,7155, 
36.1637483,140.0520552,56.38148117,0.014488416,0.0007233,-0.048180245,0.05031673,0.014506459,0.001183574,-0.015600387,-1.006244421,-0.001296244,0.00303723,0.001697473,56.65726471,0.004033065,0.006656487,0.806997478,0.590503514,0.888500115,0.077464606,107.6125626,-0.001886815,-0.001732223,-0.059686862,6,7158, 
36.1637483,140.0520552,56.38148117,0.014480455,0.000720162,-0.046727702,0.048925253,0.014498352,0.001291886,-0.01567515,-1.006621599,-0.000947705,0.00307067,0.001807617,56.65656662,0.004032794,0.006658604,0.806961119,0.590553343,0.88867263,0.077687704,107.6054957,-0.0015921,-0.000627499,-0.063302025,6,7161, 
36.1637483,140.0520552,56.81538773,0.014486298,0.000729728,-0.0493811,0.051467255,0.014504666,0.001472424,-0.015703429,-1.006837368,-0.000508009,0.003258429,0.002141026,56.65733719,0.004032886,0.006661677,0.806924999,0.590602696,0.888958273,0.07794157,107.5984894,0.001168698,0.001913186,-0.065410063,6,7164, 
36.1637483,140.0520552,56.81538773,0.014509395,0.000750837,-0.051968645,0.053961342,0.014528809,0.001537832,-0.015755977,-1.006964207,-0.000343097,0.003204606,0.002284004,56.65812302,0.004033294,0.006665457,0.806889117,0.590651512,0.889330757,0.078213529,107.5915491,0.004619345,0.004221849,-0.066655539,6,7167, 
36.1637483,140.0520552,56.81538773,0.01453045,0.00076975,-0.054488301,0.056397708,0.014550825,0.001548533,-0.015815889,-1.007032156,-0.000350001,0.003133537,0.002316772,56.65891647,0.004033947,0.006669306,0.806853473,0.590700209,0.889726134,0.078467265,107.5846357,0.004211053,0.00378257,-0.067590915,6,7170, 
36.1637483,140.0520552,56.81538773,0.014545821,0.000784918,-0.056940746,0.058774531,0.014566983,0.001623863,-0.015949849,-1.007363558,-0.000625424,0.00270457,0.002183832,56.65971756,0.004034898,0.006672502,0.80681777,0.590749025,0.890081212,0.078649579,107.5777068,0.00307402,0.003033582,-0.071363471,6,7173, 
36.1637483,140.0520552,56.65112686,0.014554993,0.000790803,-0.05781462,0.05962385,0.01457646,0.00164149,-0.016009647,-1.00800693,-0.001043173,0.002215427,0.001914653,56.65997314,0.004036258,0.006674323,0.80678165,0.59079814,0.890337017,0.078701336,107.5707209,0.001834571,0.001177076,-0.078359582,6,7176, 
36.1637483,140.0520552,56.65112686,0.014552369,0.000781259,-0.058703911,0.060485791,0.014573325,0.001604417,-0.015955213,-1.00846684,-0.001280738,0.001631539,0.00210598,56.66023254,0.004038217,0.006674693,0.806745589,0.590847433,0.890499,0.078599643,107.5637213,-0.000525042,-0.001908984,-0.083555102,6,7179, 
36.1637483,140.0520552,56.65112686,0.014548468,0.000768706,-0.059600141,0.061354915,0.014568763,0.001640375,-0.015819995,-1.008359075,-0.001453149,0.001644405,0.002349079,56.66049576,0.004040454,0.006674226,0.806709826,0.590896249,0.890602555,0.078415182,107.5567853,-0.000780016,-0.002510585,-0.082851842,6,7182, 
36.1637483,140.0520552,56.65112686,0.014541386,0.000770966,-0.060474381,0.06220287,0.014561809,0.001710499,-0.015632011,-1.007965207,-0.001445657,0.001790133,0.002509971,56.66075897,0.004042414,0.00667371,0.80667448,0.590944707,0.890682738,0.078252537,107.5499108,-0.001416624,0.000452012,-0.078164816,6,7185, 
36.1637483,140.0520552,56.56847763,0.014529469,0.000786159,-0.06053862,0.062262734,0.014550723,0.00163633,-0.015540384,-1.007724524,-0.001152012,0.001948771,0.002443427,56.66074371,0.004044289,0.006673722,0.806638956,0.590992928,0.89080625,0.078133249,107.5430465,-0.002383351,0.003038753,-0.074537091,6,7188, 
36.1637483,140.0520552,56.56847763,0.014529487,0.000799556,-0.060591601,0.062314424,0.01455147,0.001507239,-0.015600694,-1.007401824,-0.000910747,0.002246258,0.00258227,56.66072845,0.004046102,0.006674612,0.80660373,0.591041207,0.891006545,0.078079239,107.5361975,3.61E-06,0.002679326,-0.071310662,6,7191, 
36.1637482,140.0520547,56.56847763,0.012000056,0.000254093,-0.060635164,0.061811723,0.012002746,0.001350422,-0.015599435,-1.00707531,-0.001050156,0.002495111,0.002713086,56.66071701,0.004049383,0.006673889,0.806572437,0.591083646,0.891157959,0.077773969,107.5301529,0.001426995,0.002200708,-0.067858666,6,7194, 
36.1637482,140.0520547,56.56847763,0.011998048,0.000257443,-0.060667984,0.061843542,0.01200081,0.001192974,-0.015543265,-1.006682396,-0.001278632,0.002487925,0.002646104,56.66070557,0.004052151,0.006672977,0.806541443,0.591126144,0.891256935,0.077503243,107.5241232,-0.000401556,0.000669848,-0.063728087,6,7197, 
36.1637482,140.0520547,56.71311188,0.011987001,0.000244795,-0.062031601,0.063179645,0.0119895,0.0010796,-0.01551957,-1.006290913,-0.001602066,0.002382122,0.002570405,56.66118622,0.004054625,0.006671425,0.80651021,0.591168761,0.891277049,0.077216649,107.5180661,-0.002209499,-0.002529558,-0.060366593,6,7200, 
36.1637482,140.0520547,56.71311188,0.011972588,0.000214079,-0.063342147,0.064464069,0.011974502,0.000924022,-0.015449367,-1.006076455,-0.001767687,0.002496022,0.002504063,56.66167068,0.004056728,0.006669388,0.806478798,0.591211438,0.891227238,0.076931505,107.5119914,-0.002882361,-0.006143108,-0.058959588,6,7203, 
36.1637482,140.0520547,56.71311188,0.011954446,0.000175652,-0.064610481,0.065707335,0.011955737,0.000718897,-0.015299651,-1.006034732,-0.001715509,0.002632021,0.002385821,56.66216278,0.004058494,0.006667424,0.806447327,0.591254354,0.891161303,0.076682633,107.5058909,-0.003628522,-0.007685415,-0.058323681,6,7206, 
36.1637482,140.0520547,56.71311188,0.011938646,0.000135849,-0.065841511,0.066915277,0.011939418,0.000560116,-0.015162921,-1.006244421,-0.001590748,0.002876478,0.002153417,56.66265869,0.004060006,0.006665923,0.806415617,0.591297626,0.89112089,0.076488996,107.4997416,-0.00316003,-0.007960703,-0.060024876,6,7209, 
36.1637482,140.0520547,56.59533691,0.011926421,0.000100604,-0.065952636,0.067022383,0.011926845,0.000590084,-0.015169456,-1.006571531,-0.001461935,0.003294264,0.001978001,56.66275787,0.004061034,0.006665169,0.80638361,0.591341317,0.891116806,0.076391153,107.4935344,-0.002444997,-0.007048994,-0.063177273,6,7212, 
36.1637482,140.0520547,56.59533691,0.011911071,7.94E-05,-0.066081919,0.067146853,0.011911336,0.000720227,-0.015182824,-1.006938934,-0.001483091,0.003278833,0.002034754,56.66285706,0.004061737,0.006664824,0.806351542,0.591385126,0.891128274,0.076351236,107.4873125,-0.003069878,-0.004238144,-0.066178672,6,7215, 
36.1637482,140.0520547,56.59533691,0.011893304,6.12E-05,-0.066228501,0.067287955,0.011893462,0.000926175,-0.015191621,-1.00742197,-0.001366569,0.003293629,0.002074074,56.66296005,0.004062511,0.006664574,0.806319416,0.591428816,0.891153569,0.076311057,107.4810977,-0.003553525,-0.003641035,-0.071388938,6,7218, 
36.1637482,140.0520547,56.59533691,0.011878746,4.18E-05,-0.066403307,0.067457435,0.011878819,0.001081736,-0.015226512,-1.007928848,-0.001284205,0.003238989,0.002227052,56.66305923,0.004063476,0.006664497,0.806287587,0.591472387,0.891207682,0.076264753,107.474914,-0.002911568,-0.003882896,-0.077084765,6,7221, 
36.1637482,140.0520547,56.65835571,0.011865549,2.71E-05,-0.067194745,0.068234344,0.01186558,0.00115377,-0.015218398,-1.008268356,-0.001120433,0.003178517,0.002172714,56.66337585,0.004064741,0.006664582,0.806255698,0.591515839,0.891297179,0.076201713,107.4687372,-0.002639413,-0.002934314,-0.080369852,6,7224, 
36.1637482,140.0520547,56.65835571,0.011844173,1.49E-05,-0.067986071,0.069010076,0.011844182,0.001288519,-0.015081565,-1.00846982,-0.000942401,0.003120755,0.002013728,56.66369247,0.004066377,0.006664927,0.806223631,0.59155947,0.891435849,0.076122154,107.4625316,-0.004275188,-0.002443165,-0.082490295,6,7227, 
36.1637482,140.0520547,56.65835571,0.01180724,1.26E-05,-0.068771929,0.069778143,0.011807246,0.001587216,-0.014886329,-1.008484125,-0.000421618,0.003282446,0.002177344,56.66401291,0.004068427,0.006666054,0.806191564,0.5916031,0.891674833,0.076057445,107.4563263,-0.007386729,-0.000459276,-0.082663231,6,7230, 
36.1637482,140.0520547,56.65835571,0.011770278,3.15E-05,-0.069543071,0.070532114,0.01177032,0.001885084,-0.01480258,-1.008406639,-2.78E-05,0.003345981,0.002339472,56.66433716,0.00407093,0.006668268,0.806159735,0.591646433,0.892045015,0.076024359,107.4501649,-0.007392287,0.003769051,-0.08153718,6,7233, 
36.1637482,140.0520547,56.89183426,0.011742613,6.23E-05,-0.072464854,0.073410134,0.011742778,0.001968295,-0.01487163,-1.008290529,8.02E-05,0.002913072,0.002134007,56.66545486,0.004074176,0.006670716,0.806127906,0.591689825,0.892487126,0.075938407,107.4439977,-0.00553292,0.006165482,-0.080125928,6,7236, 
36.1637482,140.0520547,56.89183426,0.011717306,7.29E-05,-0.075296424,0.076202704,0.011717532,0.001865283,-0.015059982,-1.008160591,-0.000249047,0.002629608,0.001736105,56.66658401,0.004077977,0.006672414,0.806095481,0.591733754,0.892897654,0.075751169,107.4377397,-0.005061626,0.002122771,-0.080128863,6,7239, 
36.1637482,140.0520547,56.89183426,0.011689963,6.57E-05,-0.07804735,0.078917985,0.011690148,0.001709616,-0.015345473,-1.00801897,-0.000775624,0.002694838,0.001651608,56.66772461,0.004081362,0.006673092,0.806062937,0.591778278,0.893185609,0.07553373,107.4314183,-0.005468428,-0.001436755,-0.079537071,6,7242, 
36.1637482,140.0520547,56.89183426,0.011661033,6.83E-05,-0.08071705,0.081555052,0.011661233,0.001630893,-0.015628476,-1.007844925,-0.001282062,0.002700505,0.001683404,56.66887283,0.004083912,0.006672781,0.806030154,0.591822743,0.893325745,0.075326517,107.4250862,-0.005785897,0.000521366,-0.076827683,6,7245, 
36.1637482,140.0520547,56.60256958,0.011642547,8.09E-05,-0.080607116,0.081443616,0.011642829,0.001625699,-0.0158724,-1.007551074,-0.001647694,0.002637626,0.001795517,56.66905212,0.004085877,0.006671551,0.80599761,0.591867149,0.893341199,0.075110764,107.4187755,-0.003697306,0.002525292,-0.07350222,6,7248, 
36.1637482,140.0520547,56.60256958,0.011636181,9.58E-05,-0.080491781,0.081328573,0.011636575,0.001676146,-0.016010992,-1.007165432,-0.001796491,0.002594782,0.001835007,56.6692276,0.00408757,0.006669725,0.805965126,0.591911376,0.893283215,0.074879578,107.4124853,-0.001273155,0.002966926,-0.070073761,6,7251, 
36.1637482,140.0520547,56.60256958,0.011635696,0.000115325,-0.080370218,0.081208217,0.011636267,0.001747757,-0.015997529,-1.00676024,-0.001700017,0.002574837,0.001923883,56.66940308,0.00408929,0.0066678,0.80593276,0.591955483,0.893217993,0.074639006,107.4062141,-9.69E-05,0.003908973,-0.066197075,6,7254, 
36.1637482,140.0520547,56.60256958,0.011638824,0.000139666,-0.080239877,0.081079711,0.011639662,0.001786924,-0.015899252,-1.006511211,-0.001561625,0.002521339,0.002329028,56.66957474,0.004091262,0.006666054,0.805900753,0.591999054,0.893186592,0.074386735,107.4000167,0.000625595,0.004868243,-0.063669838,6,7257, 
36.1637482,140.0520547,56.48582458,0.0116512,0.000161751,-0.079021446,0.079875939,0.011652323,0.001736009,-0.015872084,-1.006290913,-0.001349139,0.003147922,0.002475547,56.66934967,0.004092922,0.006665085,0.805869162,0.592042029,0.893205731,0.074215297,107.3939032,0.002475321,0.004416861,-0.061728157,6,7260, 
36.1637482,140.0520547,56.48582458,0.011663073,0.000193286,-0.077837542,0.078706718,0.011664674,0.00160941,-0.015866749,-1.006212234,-0.001088413,0.003669245,0.002334957,56.66912079,0.004093777,0.006665444,0.805837572,0.592085004,0.8932929,0.074208315,107.3877911,0.002374589,0.006307088,-0.059815086,6,7263, 
36.1637482,140.0520547,56.48582458,0.011667743,0.000232823,-0.076686986,0.077569867,0.011670066,0.00152498,-0.015798936,-1.006253004,-0.001268415,0.004038982,0.002305813,56.66888428,0.004093795,0.006666545,0.805805862,0.592128158,0.893391861,0.074329275,107.3816554,0.000934124,0.007907324,-0.059052292,6,7266, 
36.1637482,140.0520547,56.48582458,0.011657162,0.000252139,-0.075574219,0.076468396,0.011659888,0.001382691,-0.015602385,-1.006258726,-0.001502416,0.004207343,0.0026313,56.66864395,0.004092969,0.006667628,0.805774391,0.592171013,0.893431774,0.074526564,107.3755639,-0.002116397,0.003863171,-0.059514876,6,7269, 
36.1637482,140.0520547,56.6221962,0.011636347,0.000251115,-0.07577242,0.076661119,0.011639056,0.00119302,-0.015437135,-1.006233692,-0.001581845,0.004074433,0.002910061,56.66886139,0.004091881,0.00666842,0.805743337,0.592213273,0.893427178,0.074727607,107.3695558,-0.004162982,-0.000204664,-0.059638727,6,7272, 
36.1637482,140.0520547,56.6221962,0.011629668,0.0002371,-0.075970396,0.076855751,0.011632085,0.001077918,-0.015509334,-1.006413937,-0.001452002,0.003825036,0.002705256,56.66907883,0.004091218,0.006668981,0.805712342,0.592255473,0.893430084,0.074873649,107.3635568,-0.001335591,-0.002802968,-0.062236909,6,7275, 
36.1637482,140.0520547,56.6221962,0.011633645,0.000214384,-0.076180503,0.077063978,0.01163562,0.001033848,-0.015611345,-1.006791234,-0.001070092,0.003620256,0.00231301,56.66930008,0.004091388,0.006669725,0.805680811,0.59229821,0.893506352,0.074955916,107.3574715,0.000795394,-0.004543241,-0.066641301,6,7278, 
36.1637482,140.0520547,56.6221962,0.011641539,0.000187061,-0.076411739,0.077293688,0.011643041,0.000933128,-0.015562805,-1.00719583,-0.000899611,0.00338824,0.001879476,56.66952133,0.004092401,0.006670708,0.805648744,0.59234184,0.893661859,0.074977507,107.3512667,0.001578659,-0.00546461,-0.07065177,6,7281, 
36.1637482,140.0520547,56.58190536,0.011641178,0.000149023,-0.076287434,0.077170666,0.011642132,0.000746036,-0.015384449,-1.007632494,-0.000583487,0.002981579,0.001586275,56.66960526,0.004094413,0.006671714,0.80561614,0.592386186,0.893887159,0.074909145,107.3449588,-7.22E-05,-0.007607669,-0.07478711,6,7284, 
36.1637482,140.0520547,56.58190536,0.011636223,9.08E-05,-0.076194711,0.077078168,0.011636577,0.00047859,-0.015208608,-1.007960558,-0.000254784,0.002590726,0.001217978,56.66968536,0.004097702,0.006672783,0.80558306,0.592431188,0.894204909,0.074728082,107.3385573,-0.000990942,-0.011643402,-0.078304075,6,7287, 
36.1637482,140.0520547,56.58190536,0.011633614,2.34E-05,-0.076130114,0.077013868,0.011633638,0.000355675,-0.015100012,-1.008188486,-0.000187947,0.002229786,0.001291712,56.66976547,0.00410204,0.006673696,0.805549741,0.592476487,0.894579481,0.074439884,107.3321112,-0.000521794,-0.013488907,-0.080783196,6,7290, 
36.1637482,140.0520547,56.58190536,0.011624825,-4.57E-05,-0.076088101,0.076971019,0.011624915,0.000343591,-0.015029837,-1.008411407,-0.000399066,0.002179774,0.001458519,56.66984558,0.004106688,0.006674157,0.805516481,0.592521489,0.894933639,0.074092283,107.3256962,-0.001757666,-0.013809871,-0.08287295,6,7293, 
36.1637482,140.0520547,56.56330872,0.0116037,-0.000109246,-0.075893447,0.076775472,0.011604214,0.000384717,-0.015000247,-1.008436322,-0.000447157,0.002511194,0.001644945,56.66986465,0.004110866,0.006674568,0.805483639,0.592566252,0.895251093,0.073784191,107.3193318,-0.004224867,-0.012711532,-0.082561046,6,7296, 
36.1637482,140.0520547,56.56330872,0.011574707,-0.000154771,-0.075712256,0.076592059,0.011575742,0.000442883,-0.014989125,-1.008137703,-0.000452456,0.002717073,0.001937443,56.66987991,0.004114469,0.006675321,0.805451035,0.592610478,0.895561167,0.073551987,107.3130337,-0.005798668,-0.009104963,-0.078354314,6,7299, 
36.1637482,140.0520547,56.56330872,0.011553361,-0.000185444,-0.075524598,0.0764034,0.011554849,0.000579729,-0.015070902,-1.007512093,-0.000658872,0.002905151,0.002177064,56.66989517,0.004117523,0.00667615,0.805418849,0.592654169,0.895841127,0.073374983,107.3068139,-0.004269183,-0.006134752,-0.071844473,6,7302, 
36.1637482,140.0520547,56.56330872,0.011535833,-0.000210221,-0.07531856,0.076197146,0.011537748,0.000776876,-0.015267787,-1.007094502,-0.000697519,0.003292914,0.002395087,56.66991043,0.004119821,0.006677157,0.80538702,0.592697442,0.896086209,0.073279428,107.3006575,-0.003505617,-0.004955295,-0.068125077,6,7305, 
36.1637482,140.0520547,56.52301788,0.011525635,-0.000225263,-0.074733004,0.075616882,0.011527836,0.000830635,-0.015501217,-1.006920576,-0.000815738,0.003734829,0.002674193,56.66978836,0.004121172,0.006678619,0.805355549,0.592740178,0.896309103,0.07330162,107.2945758,-0.002039582,-0.003008313,-0.066077434,6,7308, 
36.1637475,140.0520544,56.52301788,0.010439258,0.004960911,-0.073084325,0.073992616,0.01155806,0.00048122,-0.015718821,-1.007044315,-0.000244899,0.003277514,0.003123527,56.66939926,0.004119728,0.00668172,0.805262208,0.592866957,0.896485567,0.073786681,107.2765385,0.00375241,-0.007898398,-0.068257041,6,7317, 
36.1637475,140.0520544,56.60566711,0.010473148,0.004898124,-0.073364303,0.074269774,0.01156194,0.000220276,-0.01571014,-1.007061362,-0.000544189,0.0034216,0.00308654,56.66954803,0.004119507,0.006682326,0.805231094,0.592909217,0.896522555,0.073895223,107.2705257,0.006777942,-0.012557354,-0.069420934,6,7320, 
36.1637475,140.0520544,56.60566711,0.010477023,0.004832173,-0.073648095,0.07454636,0.011537673,6.26E-05,-0.015569525,-1.006943107,-0.000862247,0.003531676,0.003096605,56.66969681,0.004118574,0.006682499,0.805199981,0.592951536,0.896471215,0.07404019,107.2645075,0.002142921,-0.012832377,-0.067180738,6,7323, 
36.1637475,140.0520544,56.60566711,0.010456775,0.004774773,-0.073918737,0.074807235,0.01149533,0.00016272,-0.015333241,-1.006996393,-0.000949714,0.003482579,0.003170493,56.6698494,0.004117281,0.006682308,0.805168808,0.592993677,0.89636199,0.074193543,107.2585019,-0.004049674,-0.011480086,-0.066800073,6,7326, 
36.1637475,140.0520544,56.60566711,0.010432808,0.004723857,-0.074185573,0.075064356,0.011452436,0.000438883,-0.015133451,-1.007262945,-0.001024327,0.003435331,0.003036298,56.66999817,0.004115966,0.006681887,0.805137813,0.593035996,0.896229683,0.074333228,107.2524918,-0.004793525,-0.010183197,-0.069862053,6,7329, 
36.1637475,140.0520544,56.69141769,0.010405483,0.004685055,-0.075263321,0.076123527,0.011411565,0.000772201,-0.015074133,-1.007551074,-0.000832555,0.003415928,0.002975421,56.67044067,0.004114803,0.006681533,0.805106461,0.593078375,0.896114231,0.074463719,107.2464518,-0.005465031,-0.007760372,-0.072961107,6,7332, 
36.1637475,140.0520544,56.69141769,0.010378896,0.004664866,-0.076329544,0.077173064,0.011379036,0.001113837,-0.015117197,-1.007760286,-0.000607271,0.003483678,0.003036487,56.67088699,0.004113902,0.006681636,0.805075169,0.593120873,0.896058586,0.074601165,107.240405,-0.005317166,-0.00403776,-0.075011902,6,7335, 
36.1637475,140.0520544,56.69141769,0.010361384,0.004665848,-0.077379823,0.078209752,0.011363468,0.001409682,-0.015220243,-1.007791519,-0.000553657,0.003412422,0.002788287,56.67133713,0.004113211,0.00668202,0.805043757,0.59316355,0.896043025,0.074738405,107.2343336,-0.003502592,0.000196464,-0.075177453,6,7338, 
36.1637475,140.0520544,56.69141769,0.010346042,0.004674026,-0.07840547,0.079223133,0.011352846,0.001551162,-0.015432176,-1.007824779,-0.000406169,0.003139598,0.00253264,56.67179108,0.004113014,0.006682353,0.805011988,0.593206704,0.896056334,0.0748273,107.2281935,-0.003068343,0.001635507,-0.075607389,6,7341, 
36.16374748,140.0520544,56.27196503,0.010339297,0.004675941,-0.075507611,0.076355516,0.011347488,0.001532709,-0.015665414,-1.007786512,-0.000314712,0.002686347,0.002565326,56.67082214,0.004113724,0.00668239,0.80497998,0.593250096,0.896104,0.074812683,107.2220144,-0.001348928,0.000382923,-0.075863078,6,7344, 
36.16374748,140.0520544,56.27196503,0.010345116,0.004668816,-0.072710089,0.0735906,0.011349858,0.001483685,-0.015761243,-1.007553458,-0.000312858,0.002706241,0.002629903,56.66984177,0.004114941,0.006682201,0.804948151,0.593293428,0.896165203,0.074735662,107.2158526,0.001163721,-0.001424994,-0.07414221,6,7347, 
36.16374748,140.0520544,56.27196503,0.010352142,0.00466818,-0.070000045,0.070915196,0.011356001,0.001444263,-0.015846409,-1.00720644,-0.000222838,0.002672634,0.002817864,56.66884995,0.004116243,0.006682092,0.804916382,0.593336463,0.896239712,0.074656095,107.2097222,0.001405135,-0.000127055,-0.069967255,6,7350, 
36.16374748,140.0520544,56.27196503,0.010362244,0.004674783,-0.067362316,0.068314796,0.011367924,0.001366274,-0.015884813,-1.006814122,-0.000600983,0.002833589,0.002879954,56.66785049,0.004117207,0.006681786,0.804884791,0.593379259,0.896273137,0.074594089,107.2036261,0.002020538,0.001320396,-0.065206252,6,7353, 
36.16374748,140.0520544,56.81642151,0.010363596,0.00467585,-0.069854744,0.070773956,0.011369595,0.001256922,-0.015875377,-1.006364346,-0.000627254,0.002732405,0.003033553,56.66868973,0.004117814,0.006681117,0.80485338,0.593421817,0.89624876,0.074540031,107.1975642,0.000270292,0.000213526,-0.060374018,6,7356, 
36.16374748,140.0520544,56.81642151,0.010363147,0.004675082,-0.072251067,0.073140056,0.01136887,0.001231933,-0.015895771,-1.006232142,-0.000581559,0.002248352,0.002931233,56.66954041,0.004119026,0.006680034,0.804822028,0.593464375,0.896227261,0.07440197,107.1915057,-8.98E-05,-0.000153441,-0.059077974,6,7359, 
36.16374748,140.0520544,56.81642151,0.010375008,0.004666694,-0.074571155,0.075433918,0.011376239,0.001345968,-0.015896104,-1.006441474,-0.000417933,0.002062015,0.002843013,56.67040253,0.004121067,0.006678665,0.804790497,0.593507111,0.896235871,0.074168232,107.1854178,0.00237228,-0.001677819,-0.062543601,6,7362, 
36.16374748,140.0520544,56.81642151,0.010379044,0.004655201,-0.07684087,0.077678277,0.011375212,0.001364987,-0.015688315,-1.006996632,-0.000592957,0.002073062,0.002689613,56.67127228,0.004123275,0.006677155,0.804758787,0.593550086,0.89624293,0.073909812,107.1792956,0.000807181,-0.00229853,-0.068224892,6,7365, 
36.16374748,140.0520544,56.90629959,0.010355519,0.004647247,-0.079909161,0.080711261,0.011350493,0.001363319,-0.015291816,-1.007696867,-0.0008474,0.002490925,0.002673135,56.67245483,0.004124732,0.006675534,0.804726958,0.59359324,0.896188552,0.073713216,107.1731492,-0.004705101,-0.001590718,-0.074279472,6,7368, 
36.16374748,140.0520544,56.90629959,0.010297081,0.004645583,-0.082917571,0.08368354,0.011296517,0.001427659,-0.014832733,-1.0080266,-0.001283683,0.002908253,0.00267043,56.67364883,0.004124837,0.006673838,0.804695129,0.593636394,0.896035325,0.073636168,107.1670036,-0.01168777,-0.000332888,-0.076610066,6,7371, 
36.16374748,140.0520544,56.90629959,0.010210296,0.004647026,-0.085850157,0.086579989,0.011218066,0.001445074,-0.014354472,-1.008002043,-0.001810553,0.002838343,0.002496304,56.67485428,0.004123878,0.006671432,0.804663301,0.593679786,0.895744185,0.073609151,107.1608364,-0.017356902,0.000288729,-0.075675189,6,7374, 
36.16374748,140.0520544,56.90629959,0.010102746,0.004625967,-0.088693224,0.089386537,0.011111483,0.001381732,-0.014004326,-1.007745266,-0.001773034,0.002649994,0.002506803,56.67607117,0.004122815,0.006668342,0.804631114,0.593723238,0.895383054,0.073545437,107.1546391,-0.021510132,-0.004211809,-0.074157707,6,7377, 
36.16374748,140.0520544,56.85361099,0.010008941,0.004587908,-0.09095639,0.091620373,0.01101035,0.001276105,-0.013925724,-1.007545829,-0.001692234,0.002781863,0.002518297,56.67711639,0.004121896,0.006665331,0.804599047,0.593766749,0.895038911,0.073473602,107.1484443,-0.018760756,-0.007611848,-0.073517859,6,7380, 
36.16374748,140.0520544,56.85361099,0.009937533,0.004556945,-0.093151979,0.093791319,0.010932535,0.00114118,-0.014059594,-1.007389069,-0.001769063,0.002795878,0.00282501,56.67816925,0.004120838,0.00666243,0.804567218,0.593809903,0.894695507,0.073421808,107.1422988,-0.014281765,-0.006192647,-0.071669996,6,7383, 
