Latitude (Deg), Longitude (Deg), GPS Altitude (m), N Velocity(m/s), E Velocity(m/s), D Velocity(m/s), Velocity(m/s), Ground Speed(m/s), AccelerometerX(g), AccelerometerY(g), AccelerometerZ(g), GyroX(rad/s), GyroY(rad/s), GyroZ(rad/s), Barometric Alt(m), QuaternionX, QuaternionY, QuaternionZ, QuaternionW, Roll(deg), Pitch(deg), Yaw(deg), MagneticX, MagneticY, MagneticZ, Satellites, Sequence(135 Hz) ,
36.163726,140.052027,78.25244904,0.602463543,0.251502246,-0.015729396,0.653041434,0.652851975,0.001948653,-0.001040016,-1.030348539,-0.330847532,-0.009286162,-0.012721278,78.39520264,0.048254624,0.079731345,0.798849821,0.59426713,10.64759744,1.012299483,106.8029626,-1.775369883,-0.652548313,-0.103772275,9,170743, 
36.16372602,140.0520271,78.25244904,0.593310952,0.248251274,-0.016256638,0.643359044,0.643153622,0.005660023,0.007273231,-1.028266191,-0.321332753,-0.023389179,-0.02099652,78.39479065,0.047792196,0.079055026,0.798885703,0.594346642,10.55332224,1.009098116,106.7969497,-1.83052063,-0.650193155,-0.053584822,9,170746, 
36.16372605,140.0520271,78.25244904,0.584397018,0.244996056,-0.016531521,0.633889764,0.633674161,0.002233936,0.003265147,-1.029580355,-0.330939502,-0.026967602,-0.019406602,78.39439392,0.047346659,0.078365818,0.798915029,0.594434142,10.45900905,1.003570869,106.7895419,-1.782788277,-0.651044905,-0.093663596,9,170749, 
36.16372607,140.0520271,78.05870056,0.575469077,0.241756767,-0.015203177,0.624373389,0.624188267,0.004495959,0.007351431,-1.027440071,-0.320376009,-0.044479635,-0.021911221,78.39333344,0.046922781,0.077661894,0.798941791,0.594524145,10.36482281,0.995083016,106.7814699,-1.785598993,-0.647857606,-0.051078804,9,170752, 
36.1637261,140.0520271,78.05870056,0.56674993,0.238789037,-0.013717414,0.615153522,0.615000559,0.007163748,0.0041112,-1.026413202,-0.324294418,-0.036308464,-0.019385504,78.39227295,0.04651314,0.076957606,0.798966825,0.594614267,10.27158527,0.985264891,106.7731719,-1.743842125,-0.59354955,-0.063688129,9,170755, 
36.16372612,140.0520271,78.05870056,0.558267057,0.2356323,-0.012348386,0.606083468,0.605957662,0.004115514,0.001414272,-1.024754763,-0.321284324,-0.04672556,-0.012191636,78.39120483,0.046105981,0.076250121,0.798998535,0.594694495,10.17824234,0.97486781,106.7662104,-1.696574211,-0.63134855,-0.029341504,9,170758, 
36.16372615,140.0520271,78.05870056,0.549910903,0.232693836,-0.010859938,0.597215506,0.597116758,0.008418216,0.003172697,-1.024749279,-0.317763984,-0.032253299,-0.006831658,78.39013672,0.045700788,0.075551398,0.799038708,0.594761074,10.08586706,0.964715329,106.7611376,-1.671217203,-0.587692559,-0.026437264,9,170761, 
36.16372617,140.0520271,78.10301971,0.541793704,0.229406297,-0.009819909,0.588442094,0.588360151,0.000888504,0.000234634,-1.027280211,-0.321684182,-0.031423256,0.003465904,78.38921356,0.045281462,0.074862704,0.799090743,0.594810128,9.993480264,0.956322074,106.7586674,-1.623424292,-0.657509208,-0.046376098,9,170764, 
36.1637262,140.0520271,78.10301971,0.533454239,0.226232037,-0.008915638,0.579511733,0.579443147,0.006505501,0.008098069,-1.028795004,-0.315063089,-0.021420946,0.004136585,78.38828278,0.044854332,0.074184105,0.799151003,0.594846725,9.901510958,0.949180958,106.7580374,-1.667898178,-0.634853482,-0.033424664,9,170767, 
36.16372622,140.0520272,78.10301971,0.525288761,0.223057717,-0.007981725,0.570742267,0.570686453,0.003297074,0.005260994,-1.032338619,-0.325100899,-0.00931499,0.008874461,78.38735962,0.044403043,0.073518164,0.799216092,0.594875634,9.80907423,0.945026548,106.7587123,-1.646710515,-0.646277845,-0.086106285,9,170770, 
36.16372624,140.0520272,78.10301971,0.516991675,0.219857588,-0.007344881,0.561846686,0.561798675,0.006823552,0.009066433,-1.030175209,-0.325492203,-0.009150641,0.006193997,78.38642883,0.043931916,0.072850779,0.799284041,0.594901562,9.715153917,0.942553776,106.7599959,-1.659405947,-0.640026271,-0.036528405,9,170773, 
36.16372627,140.0520272,78.22668457,0.508850098,0.216920197,-0.007643249,0.553209918,0.553157115,0.008664968,0.006448224,-1.030742407,-0.336540222,0.008955068,0.005884134,78.38592529,0.043433722,0.072185665,0.799351275,0.59492898,9.619595399,0.942734938,106.7613066,-1.628330946,-0.587476254,-0.074822024,9,170776, 
36.16372629,140.0520272,78.22668457,0.501087546,0.213813812,-0.008128497,0.544858833,0.544798197,0.004786719,0.001371426,-1.028261662,-0.340606242,0.001502022,0.004063482,78.38542175,0.042913422,0.071513429,0.799418151,0.594957948,9.521871741,0.944473703,106.7625611,-1.552508473,-0.621278584,-0.043251324,9,170779, 
36.16372631,140.0520272,78.22668457,0.493368089,0.210963696,-0.008451696,0.536646237,0.53657968,0.008015674,0.001551133,-1.029430151,-0.342833608,0.016625177,0.003149057,78.38491821,0.042380504,0.070840701,0.799483418,0.594988883,9.423242935,0.947362342,106.7636078,-1.543896079,-0.570022285,-0.075656779,9,170782, 
36.16372633,140.0520272,78.22668457,0.486051202,0.20782578,-0.008932552,0.528693783,0.528618317,-0.000242322,-0.00543184,-1.030738115,-0.352300912,0.007983995,0.004606753,78.3844223,0.041832428,0.070161022,0.799549878,0.595018864,9.322942515,0.95115577,106.764879,-1.463373184,-0.627583027,-0.100989841,9,170785, 
36.16372635,140.0520272,78.04737091,0.478623867,0.204975069,-0.007868013,0.520727847,0.520668402,0.00623974,-0.000925738,-1.030909538,-0.346875578,0.00992509,0.003093424,78.38332367,0.041288007,0.069472276,0.7996158,0.595049322,9.222059815,0.954005942,106.7659816,-1.485464573,-0.570141673,-0.101254582,9,170788, 
36.16372637,140.0520272,78.04737091,0.471386015,0.202159509,-0.006853037,0.512952441,0.512906661,0.003139772,-0.005925247,-1.034034491,-0.355038285,0.008243524,0.006046403,78.38221741,0.040741384,0.068780839,0.7996822,0.595077872,9.120789167,0.956860617,106.7672847,-1.447573423,-0.563109934,-0.166186988,9,170791, 
36.16372639,140.0520272,78.04737091,0.464024723,0.199445695,-0.006209036,0.505109969,0.505071805,0.007869175,-0.00119832,-1.031138897,-0.350732327,-0.002627972,0.003134847,78.38111115,0.040204413,0.068076156,0.799747884,0.595107257,9.018959955,0.957940694,106.7683119,-1.472252131,-0.542767167,-0.114334628,9,170794, 
36.16372602,140.0520271,78.04737091,0.499582529,0.206958681,-0.005351071,0.540780208,0.540753732,0.006866841,-0.002569125,-1.033380032,-0.361249655,0.002729117,0.006297044,78.38000488,0.039671466,0.067358561,0.799814343,0.595135391,8.916222564,0.957761446,106.7693998,-1.456450701,-0.518878579,-0.169668674,10,170797, 
36.16372605,140.0520271,78.39054108,0.492490053,0.204151243,-0.00800476,0.533186889,0.533126798,0.003435928,-0.002074628,-1.030313969,-0.36333859,-0.015924321,0.006149443,78.38007355,0.039142657,0.066618249,0.799882829,0.595161736,8.811680173,0.955634013,106.7706265,-1.418487191,-0.561487973,-0.122563846,10,170800, 
36.16372607,140.0520271,78.39054108,0.485447288,0.201607704,-0.010364787,0.525749146,0.525646968,0.006463555,-0.001101779,-1.030655146,-0.368621886,-0.00881427,0.008471698,78.38014984,0.038620044,0.065861799,0.799952209,0.595186651,8.706081616,0.951826866,106.7719135,-1.40855372,-0.508705318,-0.148379743,10,170803, 
36.16372609,140.0520271,78.39054108,0.478689253,0.198935553,-0.012797274,0.518538837,0.518380898,0.002607549,-0.00525808,-1.029327154,-0.374234945,-0.022566717,0.006057033,78.38024139,0.038095932,0.065089472,0.800021529,0.595212281,8.598920244,0.947083547,106.7730538,-1.351589203,-0.53443104,-0.137247473,10,170806, 
36.16372611,140.0520271,78.39054108,0.471939862,0.196597993,-0.015119215,0.511474921,0.51125141,0.009971857,-0.003974217,-1.025390863,-0.370869637,-0.019782079,0.003267594,78.38034058,0.037580665,0.064306907,0.800085843,0.595243573,8.491420175,0.940898018,106.7732275,-1.349895239,-0.467507929,-0.091972895,10,170809, 
36.16372613,140.0520271,78.02469635,0.465354025,0.194259897,-0.013759481,0.504460702,0.504273018,0.007581693,-0.008800225,-1.027717113,-0.379605711,-0.018713603,0.003821311,78.3792038,0.037057344,0.063521884,0.800148487,0.595276594,8.383146471,0.935304997,106.7731761,-1.317164779,-0.467620313,-0.133212417,10,170812, 
36.16372615,140.0520272,78.02469635,0.458759844,0.191905826,-0.012661558,0.497442214,0.497281048,0.010337606,-0.00388524,-1.023905277,-0.374399602,-0.01982576,-0.000369552,78.37806702,0.036531121,0.062733412,0.800207973,0.595312774,8.274360027,0.929780282,106.7726281,-1.318823218,-0.470811486,-0.062685549,10,170815, 
36.16372617,140.0520272,78.02469635,0.452069104,0.189563885,-0.011265441,0.490334428,0.490204999,0.009784464,-0.002149704,-1.030381799,-0.379214764,-0.009757749,0.007573489,78.37692261,0.035996489,0.06195176,0.800269842,0.595343947,8.165641012,0.925447375,106.7728014,-1.338147521,-0.468389988,-0.137908772,10,170818, 
36.16372619,140.0520272,78.02469635,0.445403874,0.186971128,-0.010297655,0.483165453,0.483055704,0.006685406,0.002195029,-1.028473616,-0.368645459,-0.01672308,0.00643958,78.3757782,0.035463542,0.061177816,0.800335884,0.595367312,8.057763064,0.92141624,106.7740166,-1.333049655,-0.518549323,-0.096075945,10,170821, 
36.16372621,140.0520272,78.5152359,0.438699067,0.184664682,-0.013733767,0.476179097,0.475981003,0.011085715,0.002555783,-1.030444622,-0.367670715,-0.006693537,0.003761904,78.37630463,0.034935802,0.060417809,0.800397515,0.595393181,7.951531564,0.917897247,106.774755,-1.340960503,-0.461289018,-0.131689787,10,170824, 
36.16372623,140.0520272,78.5152359,0.432094216,0.182136089,-0.017253205,0.469229837,0.468912536,0.006239242,0.000993074,-1.027233601,-0.361392945,-0.015465727,-0.002174204,78.37684631,0.034411523,0.059666317,0.800451636,0.595426798,7.846319155,0.914727447,106.774303,-1.32097435,-0.505715311,-0.098658919,10,170827, 
36.16372625,140.0520272,78.5152359,0.425715804,0.179978639,-0.020515846,0.462652306,0.462197205,0.011734424,-0.002820241,-1.023599148,-0.35903582,-0.006952793,-0.012648057,78.37740326,0.033892684,0.058923926,0.800492167,0.595475972,7.742307075,0.911838299,106.7715201,-1.275680661,-0.431489766,-0.076195002,10,170830, 
36.16372626,140.0520272,78.5152359,0.419523656,0.177655146,-0.02357739,0.456198797,0.455589123,0.00690438,-0.006190462,-1.02507472,-0.362214148,-0.006734933,-0.011444548,78.37796783,0.033363793,0.058187552,0.800525606,0.595533311,7.638159196,0.910359924,106.7675972,-1.238427043,-0.464696944,-0.098800458,10,170833, 
36.16372628,140.0520272,78.16691589,0.413493216,0.175369024,-0.02342627,0.449755183,0.44914467,0.008669473,-0.003752053,-1.022862315,-0.356838644,-0.006485312,-0.011117944,78.37736511,0.032836154,0.057453606,0.800559342,0.595588505,7.534329446,0.908911625,106.7639002,-1.206091046,-0.457224637,-0.061027721,10,170836, 
36.1637263,140.0520272,78.16691589,0.407502532,0.173101887,-0.02310504,0.443346839,0.44274437,0.00697825,-0.002701361,-1.028498888,-0.352905959,-0.006386964,-0.000481044,78.37676239,0.032315865,0.056728732,0.800599933,0.595631838,7.431857903,0.907300468,106.7617691,-1.198140979,-0.453428984,-0.136697441,10,170839, 
36.16372632,140.0520272,78.16691589,0.40136677,0.170658901,-0.023179727,0.436757421,0.436141886,0.00482829,0.003697542,-1.028153777,-0.333117604,-0.019221842,0.001254639,78.37615967,0.031826846,0.056017574,0.800646961,0.595662236,7.332809421,0.90364755,106.7611704,-1.227154016,-0.488593876,-0.12292771,10,170842, 
36.16372634,140.0520273,78.16691589,0.395054638,0.168463945,-0.023202719,0.430100726,0.429474409,0.008013509,0.00469568,-1.028612375,-0.322744071,-0.02017606,0.002466225,78.37556458,0.031374276,0.055326175,0.800693095,0.595689058,7.23808334,0.897979789,106.7607528,-1.262426853,-0.438992381,-0.152046695,10,170845, 
36.16372635,140.0520273,78.49668884,0.388662994,0.166128084,-0.026454648,0.423505976,0.422678913,0.005699877,0.006100983,-1.026985884,-0.304125845,-0.033957787,0.000835597,78.376091,0.030957988,0.054652788,0.800735593,0.595715702,7.147505296,0.89022445,106.760014,-1.278329968,-0.467174947,-0.131462127,10,170848, 
36.16372637,140.0520273,78.49668884,0.382478893,0.164067522,-0.029522965,0.417228787,0.416182959,0.009434521,0.002656166,-1.021901011,-0.292048246,-0.034296498,-0.002646614,78.37663269,0.030578332,0.053999782,0.800771236,0.595746934,7.061309903,0.880551116,106.7583106,-1.236815929,-0.412115008,-0.09111733,10,170851, 
36.16372639,140.0520273,78.49668884,0.376452804,0.161861062,-0.032311574,0.411047144,0.409775203,0.005441679,-1.10E-05,-1.022898436,-0.289087892,-0.040654249,0.001663838,78.37718201,0.030216623,0.053356778,0.800805926,0.595776856,6.97726874,0.869907401,106.7566345,-1.205221534,-0.441292644,-0.103868775,10,170854, 
36.1637264,140.0520273,78.49668884,0.370739877,0.159774572,-0.035088178,0.405224815,0.403702824,0.007212387,-0.00057567,-1.019412518,-0.28556329,-0.042972464,0.003616666,78.37774658,0.029868832,0.052713528,0.800843894,0.595800459,6.894168638,0.85791864,106.7557069,-1.142586589,-0.417301804,-0.062686615,10,170857, 
36.16372642,140.0520273,78.09580231,0.365326732,0.157767504,-0.033857372,0.399375173,0.397937441,0.006151316,-0.004209125,-1.02353704,-0.299542665,-0.044964593,0.010636199,78.37696075,0.029518148,0.052056242,0.800888717,0.59581548,6.809589188,0.84516208,106.7560003,-1.082626104,-0.401409477,-0.117893033,10,170860, 
36.16372643,140.0520273,78.09580231,0.359833121,0.155751303,-0.032948751,0.393476764,0.392094814,0.007219329,0.002992497,-1.022125006,-0.297632337,-0.052022502,0.008010956,78.37617493,0.02916781,0.051379938,0.800936818,0.595826805,6.723288111,0.831043778,106.7567849,-1.098719239,-0.403240502,-0.091371782,10,170863, 
36.16372666,140.0520274,78.09580231,0.354514241,0.153910354,-0.031952467,0.387801114,0.386482528,0.00819844,-0.001033403,-1.023713827,-0.308403015,-0.048974857,0.005955562,78.3753891,0.028814575,0.050691914,0.800981402,0.595843017,6.635707504,0.816433405,106.756862,-1.063780904,-0.36818853,-0.124070331,10,170866, 
36.16372668,140.0520274,78.09580231,0.348984927,0.151854992,-0.031163018,0.381865882,0.380592194,0.005991135,0.003940373,-1.023372173,-0.29756546,-0.051262528,0.001489671,78.37459564,0.028460203,0.050004728,0.801020682,0.595865369,6.548124152,0.802038165,106.7560449,-1.105862379,-0.411075145,-0.103958502,10,170869, 
36.16372669,140.0520274,78.46577454,0.343717009,0.149783745,-0.033755966,0.37645188,0.374935398,0.004494876,-0.000612398,-1.019077301,-0.294318795,-0.040399693,0.002016645,78.37506104,0.02810747,0.049338125,0.801055849,0.595890284,6.462551686,0.788925471,106.7548184,-1.053581238,-0.414249241,-0.060415138,10,170872, 
36.16372671,140.0520274,78.46577454,0.33856827,0.14752835,-0.036063906,0.371071008,0.369314348,0.00134067,-0.002838961,-1.020647049,-0.288706541,-0.037453193,0.007511096,78.37553406,0.027747875,0.048690449,0.801095068,0.595907688,6.378264745,0.777679701,106.7546935,-1.029746532,-0.451077163,-0.063782871,10,170875, 
36.16372672,140.0520274,78.46577454,0.333787352,0.145376682,-0.038323384,0.366083403,0.364071938,0.001876962,-0.005110302,-1.015366793,-0.282515407,-0.028375356,0.00967331,78.37602234,0.027385483,0.048063252,0.801139235,0.595915973,6.295685481,0.768024234,106.7558628,-0.956176281,-0.430332392,-0.01140447,10,170878, 
36.16372673,140.0520274,78.46577454,0.329298645,0.143289536,-0.04025802,0.361372657,0.359123223,0.000786796,-0.010966532,-1.017233133,-0.290694773,-0.023832077,0.012511538,78.37651825,0.027008263,0.047444016,0.801187396,0.595918179,6.212834128,0.760230871,106.7579785,-0.89773488,-0.417429954,-0.041665088,10,170881, 
36.16372675,140.0520275,77.81033325,0.324697971,0.141307294,-0.036186941,0.355957889,0.354113716,0.003810293,-0.004794764,-1.01349473,-0.280988395,-0.019006783,0.003582561,78.37490845,0.026622424,0.046833463,0.801230729,0.59592551,6.130192053,0.753868193,106.7593806,-0.920132637,-0.396451116,0.001015726,10,170884, 
36.16372676,140.0520275,77.81033325,0.320154339,0.13937287,-0.032035541,0.350642088,0.349175597,0.003354264,-0.007988814,-1.014555216,-0.289204419,-0.010353155,-0.002935498,78.37328339,0.026223283,0.046234928,0.801262498,0.595947206,6.04773706,0.74966135,106.7587923,-0.908734739,-0.386881053,-0.020274945,10,170887, 
36.16372678,140.0520275,77.81033325,0.315195292,0.137287259,-0.028119478,0.344944298,0.343796253,0.003788342,0.00104217,-1.014664412,-0.276798725,-0.008157558,-0.007971538,78.37164307,0.025815723,0.045649029,0.801285446,0.595979452,5.96586314,0.747171893,106.756728,-0.991806924,-0.417117864,-0.001565393,10,170890, 
36.16372679,140.0520275,77.81033325,0.310427666,0.135257706,-0.024235077,0.339480959,0.3386148,0.003129857,-0.001014747,-1.013378143,-0.272548139,-0.001161383,-0.005178164,78.36997986,0.025411222,0.045086697,0.801305532,0.596012473,5.886372361,0.746021382,106.7544844,-0.953523099,-0.405907035,0.001540888,10,170893, 
36.1637268,140.0520275,78.00202179,0.305722177,0.133189052,-0.022239301,0.334215439,0.333474696,0.001902928,-0.001869909,-1.014227152,-0.26695931,-0.006072791,0.001709669,78.36885071,0.025012504,0.044535451,0.801332116,0.596035182,5.80830946,0.745023398,106.7536539,-0.941105247,-0.413728535,-0.008084211,10,170896, 
36.16372682,140.0520275,78.00202179,0.301277369,0.131427675,-0.020353174,0.329325885,0.328696345,0.005068125,-0.003067553,-1.009397745,-0.257816911,-0.005910504,0.004311449,78.36771393,0.024630034,0.043995101,0.801364303,0.596047938,5.732373392,0.743211151,106.7540979,-0.888968408,-0.352278709,0.020175997,10,170899, 
36.16372683,140.0520275,78.00202179,0.297221601,0.129744723,-0.018385619,0.32482673,0.324305987,0.003114992,-0.011794339,-1.01021111,-0.264590502,-0.01186025,0.008664835,78.36656952,0.024255507,0.04345258,0.801401079,0.59605366,5.656788977,0.740474578,106.7554627,-0.811156511,-0.336588979,-0.006896842,10,170902, 
36.16372684,140.0520275,78.00202179,0.292930812,0.128196999,-0.0166113,0.320185675,0.319754486,0.007072313,-0.004110497,-1.007363558,-0.252722919,-0.014945649,0.008797598,78.36542511,0.023894062,0.042908266,0.801440299,0.596054912,5.58194052,0.736387741,106.7573488,-0.858160496,-0.309541821,0.025022253,10,170905, 
36.16372685,140.0520275,78.48844147,0.288808733,0.126561895,-0.01925756,0.315910195,0.315322688,0.003638628,-0.007253236,-1.009643316,-0.263248682,-0.018859394,0.012167222,78.36592865,0.02354081,0.042359959,0.801481485,0.596052825,5.507289251,0.731257271,106.7596331,-0.824422956,-0.327023745,-0.006106324,10,170908, 
36.16372687,140.0520275,78.48844147,0.284281284,0.124845728,-0.021971229,0.311263617,0.310487204,0.004913317,0.003060764,-1.01104188,-0.255664885,-0.02536845,0.010512245,78.36644745,0.023195891,0.041800868,0.801523387,0.596049309,5.432218262,0.724619496,106.7620304,-0.905496538,-0.343232185,-0.006721169,10,170911, 
36.16372688,140.0520275,78.48844147,0.2798962,0.123190656,-0.024602421,0.306794882,0.305806835,0.00430744,0.001919858,-1.010757685,-0.259495497,-0.025631871,0.008389587,78.36696625,0.022860354,0.041240584,0.801561892,0.596049666,5.357676481,0.717069434,106.7638077,-0.877011061,-0.331011921,-0.015516423,10,170914, 
36.16372643,140.0520275,78.48844147,0.261413902,0.130755559,-0.027194513,0.293553719,0.292291369,0.004511946,-0.0020765,-1.012363672,-0.260835171,-0.030807139,0.004951172,78.36750031,0.022557968,0.040686,0.801490426,0.596195281,5.285800958,0.707827795,106.7446339,-0.852110207,-0.328258008,-0.025987502,9,170917, 
36.16372644,140.0520275,78.32561493,0.25731948,0.129315451,-0.028244033,0.289367459,0.287985765,0.007288409,-0.002769146,-1.008986473,-0.248300895,-0.026158098,0.002094629,78.36749268,0.022263935,0.040142518,0.801413476,0.596346676,5.21551849,0.698594897,106.7245754,-0.818878055,-0.288018465,0.003061008,9,170920, 
36.16372646,140.0520275,78.32561493,0.253694028,0.127753869,-0.029118046,0.285533836,0.284045262,0.002855941,-0.014039831,-1.011790276,-0.253389955,-0.026386758,0.001309941,78.36749268,0.021970641,0.039609984,0.801333189,0.596501052,5.146297397,0.69004043,106.7040634,-0.725082815,-0.312315762,-0.023149364,9,170923, 
36.16372647,140.0520275,78.32561493,0.249790013,0.126220018,-0.030093541,0.281482086,0.279868797,0.00568825,-0.005417138,-1.010203958,-0.231419161,-0.020683264,0.000385502,78.36749268,0.021684175,0.039098583,0.801250577,0.596656203,5.079493162,0.682289016,106.6833824,-0.780795276,-0.306766868,0.005096067,9,170926, 
36.16372648,140.0520275,78.32561493,0.246148884,0.124553561,-0.030899355,0.277592567,0.275867473,0.001408398,-0.01069204,-1.014034271,-0.235293195,-0.01495239,0.000482098,78.36750031,0.021399533,0.038613953,0.801166594,0.596810937,5.015281709,0.676179006,106.6627431,-0.728224576,-0.333288342,-0.036545835,9,170929, 
36.16372649,140.0520275,78.16175842,0.242047489,0.122789919,-0.030361606,0.273104702,0.271411774,0.003342945,-3.61E-05,-1.014775038,-0.220094517,-0.012608683,0.001098912,78.36695099,0.021115109,0.038146753,0.801082313,0.596964002,4.952695167,0.671212219,106.6423037,-0.82028079,-0.352724493,-0.023388918,9,170932, 
36.1637265,140.0520275,78.16175842,0.23807925,0.121113017,-0.029779147,0.268769213,0.26711438,0.003252402,-0.000409978,-1.015108109,-0.219409421,-0.003000088,0.002121378,78.36640167,0.02083048,0.037704431,0.800998628,0.597114384,4.892388074,0.667931694,106.6222436,-0.793641925,-0.335376978,-0.038539108,9,170935, 
36.16372651,140.0520275,78.16175842,0.234249175,0.119438395,-0.0292928,0.26456809,0.26294145,0.003361142,-0.003353889,-1.015250683,-0.217456698,-0.003268157,0.004931463,78.36585999,0.02053849,0.037271723,0.800917804,0.597260177,4.83246726,0.665937877,106.6028625,-0.766015708,-0.334927261,-0.032745812,9,170938, 
36.16372652,140.0520275,78.16175842,0.230508924,0.117994398,-0.028797217,0.260550036,0.258953744,0.006651498,-0.001605006,-1.009945154,-0.208280832,0.005032634,0.006576833,78.36531067,0.020246817,0.036856133,0.800839543,0.597400784,4.774149154,0.665039201,106.5841918,-0.748047471,-0.288799584,0.010627057,9,170941, 
36.16372653,140.0520275,78.32665253,0.227315962,0.116444066,-0.029637782,0.257118971,0.255405104,0.001206791,-0.013084421,-1.010522246,-0.220264241,0.003687418,0.008770041,78.36532593,0.019946111,0.036442935,0.800764322,0.5975371,4.715436927,0.665089635,106.5661626,-0.638588548,-0.310064048,-0.004111253,9,170944, 
36.16372654,140.0520275,78.32665253,0.22395581,0.115017429,-0.030522468,0.25360764,0.251764203,0.004479653,-0.00609732,-1.006189346,-0.206688479,0.006538847,0.009434948,78.36534119,0.019645067,0.036032483,0.800690949,0.597670317,4.656957635,0.665324174,106.5485546,-0.672036529,-0.285326213,0.03961711,9,170947, 
36.16372655,140.0520275,78.32665253,0.220908642,0.113507062,-0.031160178,0.250310683,0.248363607,-8.35E-05,-0.012542402,-1.008836508,-0.223099068,0.007696372,0.010506382,78.36536407,0.019337818,0.035622247,0.800618768,0.597801447,4.598076265,0.666114023,106.5312405,-0.609440923,-0.302074254,-0.001693685,9,170950, 
36.16372656,140.0520276,78.32665253,0.217620075,0.112032264,-0.031976681,0.246844553,0.244764632,0.002537491,-0.004080894,-1.007504344,-0.220305011,0.005138476,0.011295611,78.36538696,0.019021731,0.035197403,0.800548553,0.597930968,4.537247742,0.666685619,106.5141892,-0.677380621,-0.303059965,0.024136987,9,170953, 
36.16372657,140.0520276,77.9597702,0.214403391,0.11059083,-0.029225232,0.243008765,0.241244991,0.001741608,-0.004721409,-1.008785725,-0.229528666,0.010732321,0.015364722,78.36416626,0.018697856,0.03476838,0.800481915,0.598055422,4.475506974,0.667639596,106.4978586,-0.643339097,-0.288285702,-0.003977071,9,170956, 
36.16372657,140.0520276,77.9597702,0.211238891,0.109054044,-0.026695769,0.239222318,0.237728108,0.000683779,-0.005384409,-1.008551478,-0.237749472,0.004736677,0.016832372,78.36293793,0.018361423,0.034321576,0.800419927,0.598174632,4.411276148,0.668478988,106.4823096,-0.632901847,-0.30735749,0.009821285,9,170959, 
36.16372658,140.0520276,77.9597702,0.208070844,0.107681483,-0.024176441,0.235527659,0.234283542,0.003154125,-0.002277188,-1.00621736,-0.237812385,0.006946388,0.020997247,78.36169434,0.018022662,0.033863638,0.80036211,0.598288417,4.345868086,0.668721824,106.4675156,-0.633600473,-0.274509877,0.025006924,9,170962, 
36.16372659,140.0520276,77.9597702,0.205325961,0.106316604,-0.021658037,0.232230577,0.231218448,0.000349331,-0.011927381,-1.008993864,-0.251377493,-0.002216483,0.02102131,78.36045074,0.017680671,0.033386882,0.800307453,0.598398387,4.27851457,0.667933088,106.4532392,-0.548978925,-0.27297616,-0.012781255,9,170965, 
36.1637266,140.0520276,77.9278183,0.202412218,0.105177335,-0.019105656,0.228906103,0.228107382,0.005211028,-0.007050522,-1.005630255,-0.240753248,-0.004956933,0.018730137,78.35908508,0.017348122,0.032898445,0.800250828,0.59851104,4.210734436,0.665474899,106.4385192,-0.582754493,-0.227853104,0.017237112,9,170968, 
36.16372661,140.0520276,77.9278183,0.199720472,0.10411907,-0.016484812,0.22583356,0.225231098,0.004464288,-0.014429254,-1.008571148,-0.24879092,-0.010614607,0.018740214,78.35771942,0.017025635,0.032406464,0.80019176,0.598625898,4.143320415,0.661847,106.4233922,-0.538340688,-0.211652517,-0.0246251,9,170971, 
36.16372662,140.0520276,77.9278183,0.196820557,0.103067718,-0.014152116,0.222624277,0.222174,0.006557302,-0.009674102,-1.006381512,-0.234660089,-0.015758328,0.019538056,78.3563385,0.016718369,0.031912588,0.800132751,0.59874022,4.076778768,0.656673873,106.4082734,-0.579983354,-0.210268527,0.008832514,9,170974, 
36.16372663,140.0520276,77.9278183,0.193858773,0.102048405,-0.011728838,0.219391582,0.219077841,0.006694589,-0.00749016,-1.009063959,-0.227622241,-0.014100915,0.025756227,78.35494995,0.016430533,0.031437222,0.800077558,0.598846912,4.013280555,0.650937937,106.3941214,-0.592359006,-0.203861937,-0.02408956,9,170977, 
36.16372663,140.0520276,78.18649292,0.19080171,0.100802556,-0.011950088,0.216123234,0.215792604,0.004229639,-0.005315808,-1.010654092,-0.219239846,-0.019068729,0.031903435,78.35443878,0.016157871,0.030974641,0.800030887,0.598940969,3.952010167,0.644612408,106.3817141,-0.611414731,-0.249171183,-0.021573924,9,170980, 
36.16372664,140.0520276,78.18649292,0.187539935,0.099717215,-0.012154889,0.212749833,0.212402331,0.00820912,0.001527088,-1.009687901,-0.202061638,-0.015611586,0.04040204,78.35392761,0.015906259,0.030536279,0.799993694,0.599019706,3.894424073,0.637935875,106.3713799,-0.652352214,-0.217066288,-0.012486927,9,170983, 
36.16372665,140.0520276,78.18649292,0.184569806,0.098577447,-0.012310535,0.209606955,0.209245135,0.005609912,-0.004936618,-1.01097703,-0.203791738,-0.016176041,0.03952235,78.35341644,0.015663464,0.030115467,0.799961627,0.599090397,3.839062293,0.631609036,106.3621675,-0.594024718,-0.227952644,-0.025947861,9,170986, 
36.16372666,140.0520276,78.18649292,0.181485236,0.097535849,-0.012529806,0.206414943,0.206034299,0.008818964,-0.000944143,-1.006427765,-0.190237716,-0.010534279,0.03708566,78.3529129,0.015424167,0.029710416,0.799926341,0.59916383,3.785387983,0.626050116,106.3525233,-0.616914213,-0.208317667,0.027337782,9,170989, 
36.16372667,140.0520276,78.1978302,0.178693533,0.096379936,-0.012584898,0.20341792,0.203028251,0.004956455,-0.006896105,-1.008355379,-0.196772426,-0.002215513,0.035367243,78.35244751,0.015175873,0.029323006,0.799887896,0.599240541,3.732713965,0.622535084,106.3424387,-0.558339477,-0.231182322,0.006639019,9,170992, 
36.16372667,140.0520276,78.1978302,0.175872147,0.094994843,-0.012736926,0.200292939,0.199887549,0.002391155,-0.003051238,-1.007192612,-0.187905654,0.000664806,0.03459011,78.35198212,0.014917902,0.02894645,0.799847543,0.59931922,3.680370918,0.620653403,106.3321002,-0.564277768,-0.277017236,0.037621863,9,170995, 
36.16372668,140.0520276,78.1978302,0.173054099,0.093549199,-0.012727875,0.197132374,0.196721056,0.000480599,-0.000828402,-1.010320306,-0.183093935,0.006374702,0.039872389,78.35151672,0.014661621,0.028590007,0.799810052,0.599392712,3.629994916,0.619967282,106.3224848,-0.563608646,-0.28913027,5.16E-05,9,170998, 
36.16372669,140.0520276,78.1978302,0.170172393,0.091946483,-0.012900442,0.193853606,0.193423885,-0.00252112,0.000770018,-1.012990236,-0.180135772,0.003208702,0.040407352,78.35105133,0.014408703,0.028243216,0.799776495,0.599460006,3.580741355,0.61960134,106.3137255,-0.576341748,-0.320543081,-0.027644649,9,171001, 
36.1637267,140.0520276,78.33283234,0.167136639,0.090580888,-0.014460804,0.190653267,0.19010406,0.001898371,0.005196743,-1.010238647,-0.167828977,0.004950366,0.04328008,78.35105133,0.014168648,0.027910642,0.799744844,0.599523604,3.533679573,0.61901108,106.3054419,-0.607151628,-0.27311787,-0.010770105,9,171004, 
36.1637267,140.0520277,78.33283234,0.164372385,0.089291565,-0.015891248,0.187733311,0.187059521,0.00116724,-0.002226114,-1.011496305,-0.171892077,0.002408366,0.042573266,78.35105896,0.013935526,0.02758575,0.799714267,0.599584818,3.487801771,0.618297435,106.2974541,-0.552852333,-0.257864386,-0.03335873,9,171007, 
36.16372671,140.0520277,78.33283234,0.161674559,0.088141456,-0.017390262,0.184959457,0.184140108,0.003657536,-0.001630305,-1.003963113,-0.161890581,0.003167659,0.04295617,78.35107422,0.013708511,0.027265543,0.799683094,0.59964627,3.44277382,0.617341477,106.2894015,-0.539564729,-0.230021536,0.041422121,9,171010, 
36.16372672,140.0520277,78.33283234,0.159398168,0.086980909,-0.018472921,0.182523159,0.181585943,0.000682885,-0.009545002,-1.005120039,-0.172136277,0.006372428,0.044836346,78.35109711,0.013477314,0.0269481,0.79965359,0.59970516,3.397714626,0.616942148,106.281716,-0.455273926,-0.232108817,0.021894149,9,171013, 
36.16372672,140.0520277,78.11332703,0.157289773,0.085670881,-0.017570456,0.179967479,0.179107712,-0.002021074,-0.009355828,-1.002220035,-0.172390833,0.005691838,0.043806344,78.35037994,0.01323564,0.026622124,0.799625039,0.599763334,3.351153164,0.616906969,106.2741648,-0.42168051,-0.262006402,0.061411865,9,171016, 
36.16372673,140.0520277,78.11332703,0.15536873,0.084395692,-0.016495015,0.177578604,0.176810846,-0.00277954,-0.010884584,-1.004218578,-0.180678636,0.006945696,0.044939324,78.34966278,0.01298687,0.026288113,0.799596548,0.599821329,3.303368005,0.61696309,106.2666303,-0.384206146,-0.255038291,0.036027201,9,171019, 
36.16372674,140.0520277,78.11332703,0.15339011,0.083112277,-0.015570234,0.1751531,0.17445967,-0.002820148,-0.009647053,-1.006294608,-0.182095706,0.000647439,0.038531579,78.34894562,0.012735573,0.025940794,0.799564302,0.599884868,3.25418448,0.616351849,106.2583029,-0.395721048,-0.256683707,0.01432237,9,171022, 
36.16372674,140.0520277,78.11332703,0.151289195,0.082051836,-0.0147768,0.172740493,0.172107304,0.001220113,-0.007938925,-1.004785061,-0.17503117,-0.002727159,0.035461996,78.34822083,0.012497746,0.025592102,0.799524426,0.599957943,3.20579458,0.614443833,106.2485447,-0.42018193,-0.212088525,0.019759774,9,171025, 
36.16372675,140.0520277,78.2751236,0.14915739,0.081133612,-0.015483105,0.170500195,0.16979573,0.003304846,-0.011473315,-1.008687735,-0.175038785,-0.006285754,0.031027416,78.34804535,0.012271777,0.025245458,0.799478471,0.600038528,3.158402984,0.611612669,106.2376613,-0.426361412,-0.183643669,-0.027394369,9,171028, 
36.16372676,140.0520277,78.2751236,0.147027582,0.080218062,-0.016398899,0.168288357,0.167487454,0.003815839,-0.009792103,-1.004081368,-0.161336839,-0.006389944,0.03303995,78.34786987,0.012059542,0.024909867,0.799430132,0.600121439,3.112968603,0.608284469,106.2264003,-0.425963074,-0.183110073,0.023532405,9,171031, 
36.16372676,140.0520277,78.2751236,0.145149067,0.079280168,-0.017034924,0.166264203,0.165389228,0.002369551,-0.014680851,-1.007992506,-0.164348125,-0.00415188,0.038971134,78.34770966,0.011853323,0.024586506,0.799387157,0.600195885,3.069077598,0.605206566,106.2163021,-0.375706255,-0.187578768,-0.012806281,9,171034, 
36.16372628,140.0520275,78.2751236,0.094027147,0.055417843,-0.017828044,0.110589696,0.109143216,-0.000600155,-0.013010891,-1.0052948,-0.157611027,-0.002833102,0.042035133,78.34754944,0.011627603,0.024279345,0.799504399,0.600056827,3.025491816,0.604214286,106.2368625,-0.34749192,-0.21960777,0.023529261,9,171037, 
36.16372628,140.0520275,78.17928314,0.092514917,0.054367684,-0.017524585,0.108728865,0.107307292,-0.000777043,-0.01561972,-1.005804658,-0.163202316,-0.001347862,0.043883853,78.34706879,0.011400145,0.023975315,0.799625039,0.599912584,2.982078158,0.603593684,106.2581431,-0.302449673,-0.21003136,0.017786168,9,171040, 
36.16372629,140.0520275,78.17928314,0.090802521,0.053363614,-0.017255019,0.106726326,0.105322234,0.001082548,-0.011592329,-1.006005287,-0.161691859,0.000448719,0.036913428,78.34658051,0.01116625,0.023669688,0.799741805,0.599773288,2.938072263,0.603488057,106.2787137,-0.3424775,-0.200814962,0.015582003,9,171043, 
36.16372629,140.0520275,78.17928314,0.088982105,0.052403539,-0.017001484,0.104656564,0.103266384,0.002643451,-0.009575155,-1.00434947,-0.162623778,0.00355934,0.034294479,78.34609222,0.010927659,0.023368416,0.799851477,0.599643409,2.894135923,0.604162307,106.2979525,-0.364078671,-0.192015499,0.033459589,9,171046, 
36.16372629,140.0520275,78.17928314,0.086963192,0.051535994,-0.016663561,0.102451108,0.10108687,0.005937084,-0.007685855,-1.009043932,-0.167707115,0.00785306,0.032439217,78.34561157,0.01067708,0.02306669,0.799957871,0.599517703,2.849332026,0.605934239,106.3166051,-0.403782994,-0.17350933,-0.008679219,9,171049, 
36.16372632,140.0520276,78.21225739,0.0849666,0.050640441,-0.016847519,0.100337512,0.098912979,0.005726793,-0.00451728,-1.006684303,-0.163352653,0.012469104,0.039157495,78.34524536,0.01041724,0.022770798,0.800067842,0.599386811,2.804432294,0.608953001,106.3360075,-0.399318546,-0.179109395,0.018695585,9,171052, 
36.16372633,140.0520276,78.21225739,0.083187982,0.04985591,-0.016889565,0.098443434,0.096983773,0.007124805,-0.008516679,-1.010690093,-0.169938788,0.012229568,0.045150101,78.34487915,0.010151769,0.022475738,0.80018729,0.599242985,2.759233654,0.612516365,106.3572565,-0.355721027,-0.156904191,-0.01946152,9,171055, 
36.16372633,140.0520276,78.21225739,0.081512049,0.049075663,-0.017117215,0.096672819,0.095145335,0.005805661,-0.00773314,-1.008324385,-0.162822098,0.013447035,0.048802417,78.34451294,0.009886044,0.022181768,0.80031383,0.599089384,2.714126744,0.61616197,106.379889,-0.335185826,-0.156049371,-0.005715176,9,171058, 
36.16372633,140.0520276,78.21225739,0.080165803,0.048349649,-0.017271208,0.09519737,0.093617544,0.004585231,-0.015053337,-1.008243322,-0.167704761,0.008553141,0.052453645,78.34414673,0.00962593,0.02188714,0.800445616,0.598928392,2.669352153,0.619241467,106.4035454,-0.269248486,-0.145203263,-0.012337744,9,171061, 
36.16372634,140.0520276,77.9556427,0.078618482,0.047660708,-0.015066927,0.093163411,0.091936983,0.005762997,-0.011245673,-1.009452939,-0.162325382,0.006379938,0.051968344,78.34291077,0.009373402,0.021587631,0.800579429,0.5987643,2.624654083,0.621298917,106.4275995,-0.309464455,-0.137786776,-0.030291244,9,171064, 
36.16372634,140.0520276,77.9556427,0.07710512,0.046827689,-0.013022847,0.091146182,0.090211041,0.002260186,-0.01047736,-1.00762105,-0.162126005,-0.001457765,0.054831594,78.34166718,0.00913519,0.021286136,0.800714731,0.598597944,2.580758494,0.621918415,106.4519338,-0.302671075,-0.166604936,-0.016417243,9,171067, 
36.16372634,140.0520276,77.9556427,0.075299382,0.046135351,-0.010977774,0.088988646,0.088308933,0.006390214,-0.006132719,-1.011847496,-0.162402526,-0.010258575,0.048881881,78.34042358,0.008913551,0.020972103,0.800847352,0.598434925,2.536846256,0.620186755,106.4757245,-0.361145914,-0.138468117,-0.059283867,9,171070, 
36.16372635,140.0520276,77.9556427,0.073366717,0.045361713,-0.009213056,0.086748144,0.086257522,0.004133826,-0.001881998,-1.008317947,-0.155797198,-0.016190849,0.048436061,78.33917236,0.008711287,0.020653412,0.800974667,0.598278522,2.493829052,0.616396747,106.4985047,-0.386531919,-0.154728442,-0.036014631,9,171073, 
36.16372635,140.0520276,78.64199066,0.071592703,0.044706911,-0.013779321,0.085522469,0.084405113,0.006064792,-0.007136788,-1.010149717,-0.162791789,-0.026757071,0.04306319,78.34024811,0.008525163,0.020322017,0.801097333,0.598128259,2.450745402,0.610290383,106.5203548,-0.354803413,-0.130960792,-0.049506918,9,171076, 
36.16372635,140.0520276,78.64199066,0.069945261,0.044029355,-0.01827389,0.084645488,0.082649402,0.004203896,-0.006710266,-1.006302834,-0.152352259,-0.028082136,0.040839106,78.34133911,0.008353392,0.019985231,0.801214099,0.597985804,2.408141781,0.602536851,106.5410553,-0.329487383,-0.135510534,-0.018342048,9,171079, 
36.16372636,140.0520276,78.64199066,0.068863139,0.043250337,-0.02247791,0.084368122,0.081318654,-0.00033705,-0.017736778,-1.005334854,-0.157294556,-0.034777343,0.039130159,78.342453,0.008193725,0.019647958,0.801327348,0.597847223,2.366317938,0.593666087,106.5611452,-0.216423899,-0.155803844,-0.004319169,9,171082, 
36.16372636,140.0520276,78.64199066,0.06769374,0.042493403,-0.026481234,0.0841985,0.079925789,0.00099404,-0.015019557,-1.006456137,-0.150378227,-0.030838365,0.035041906,78.34358215,0.008038217,0.019310631,0.801436186,0.597714484,2.324766729,0.584441481,106.5803966,-0.233876944,-0.151387259,-0.009981334,9,171085, 
36.16372636,140.0520276,78.27409363,0.066802442,0.041525736,-0.026964705,0.083150757,0.078657187,-0.004181282,-0.018157534,-1.005532265,-0.153008506,-0.027213937,0.036089804,78.34347534,0.007878321,0.018983245,0.801542521,0.597584367,2.28382425,0.576322861,106.599267,-0.178259417,-0.193532854,0.004587907,9,171088, 
36.16372636,140.0520276,78.27409363,0.065692544,0.04071147,-0.027360441,0.081984925,0.07728476,0.001898546,-0.014298388,-1.00963819,-0.155858263,-0.020226942,0.030866925,78.34337616,0.007703663,0.018658306,0.801645994,0.597458243,2.242090596,0.569752681,106.6176063,-0.221979707,-0.162853733,-0.016140975,9,171091, 
36.16372637,140.0520276,78.27409363,0.064500645,0.039807603,-0.027845219,0.080748589,0.075795636,0.000673535,-0.009644749,-1.00891161,-0.156931072,-0.006971235,0.033449631,78.34327698,0.007505788,0.018344546,0.801747441,0.597334206,2.199792385,0.566100446,106.6356729,-0.238378406,-0.180773854,-0.00687876,9,171094, 
36.16372637,140.0520276,78.27409363,0.063509002,0.03900937,-0.028269604,0.079713831,0.074532706,0.00349046,-0.014058077,-1.011433363,-0.17316483,-0.001408401,0.031446971,78.3431778,0.007276204,0.018027443,0.801849902,0.597209215,2.155016609,0.565143971,106.6539375,-0.198328242,-0.159646645,-0.014357381,9,171097, 
36.16372637,140.0520276,78.04324341,0.062517047,0.038263775,-0.026570745,0.077964749,0.073297324,0.00400976,-0.009962494,-1.009346485,-0.16947329,0.011731469,0.033566892,78.34230042,0.007018573,0.017711686,0.80195272,0.597083688,2.108445921,0.566870239,106.6723168,-0.198392093,-0.149118841,0.000776526,9,171100, 
36.16372637,140.0520276,78.04324341,0.062058941,0.037435018,-0.024850737,0.076617568,0.072475462,-0.00047622,-0.020480659,-1.009091377,-0.182967484,0.00999938,0.032045215,78.34141541,0.006742262,0.017394561,0.802056253,0.596957207,2.060473285,0.570232495,106.6908536,-0.091620713,-0.165751487,0.002362479,9,171103, 
36.16372638,140.0520276,78.04324341,0.061368451,0.036778264,-0.023175685,0.075205317,0.071545282,0.003002002,-0.016273949,-1.008906722,-0.178220838,0.017174672,0.02843296,78.34052277,0.006453914,0.017072719,0.802155852,0.596835792,2.011241377,0.574407252,106.7086602,-0.138098881,-0.131351337,-0.007776882,9,171106, 
36.16372638,140.0520276,78.04324341,0.060915992,0.036003202,-0.021602565,0.073984184,0.070760078,-0.001605562,-0.02048157,-1.006690264,-0.184001207,0.013317194,0.028268084,78.3396225,0.006161445,0.01675229,0.802252531,0.596717954,1.961856824,0.579081904,106.7259422,-0.090493172,-0.155012995,0.003824271,9,171109, 
36.16372638,140.0520276,78.14115143,0.0601511,0.035520032,-0.020931758,0.072924386,0.069855762,0.005982752,-0.01628577,-1.007127285,-0.181588158,0.010367084,0.019820068,78.33905792,0.005873172,0.016423419,0.802342713,0.596608818,1.911977843,0.582829578,106.7419572,-0.152978808,-0.096633717,0.0003381,9,171112, 
36.16372638,140.0520276,78.14115143,0.059113741,0.035014391,-0.020297902,0.071641097,0.068705472,0.005173169,-0.010193361,-1.005749464,-0.177967504,0.007329179,0.023467721,78.33849335,0.005595365,0.016096115,0.802428961,0.59650439,1.862956272,0.585747332,106.7572575,-0.207470626,-0.101127617,-0.004258312,9,171115, 
36.16372639,140.0520276,78.14115143,0.058113828,0.034636639,-0.019705988,0.070464458,0.067652892,0.008151716,-0.012326946,-1.007055998,-0.187378109,-0.005452849,0.020232828,78.33792114,0.005329178,0.015751155,0.802515328,0.596399784,1.813105735,0.586402555,106.7725397,-0.199982747,-0.07554996,-0.010933504,9,171118, 
36.16372639,140.0520276,78.14115143,0.056979775,0.034342088,-0.01916576,0.069234386,0.066528744,0.008467498,-0.005659479,-1.006505132,-0.180028498,-0.00570809,0.024269396,78.33734894,0.005074613,0.015394353,0.802602112,0.596294463,1.762960707,0.585191716,106.7878851,-0.22681044,-0.058910698,-0.025572516,9,171121, 
36.16372639,140.0520276,78.07416534,0.055535093,0.033757735,-0.017009072,0.067179162,0.064990239,0.008363957,-0.011300731,-1.00544858,-0.186004415,-0.023353873,0.024603054,78.33575439,0.004607249,0.014624427,0.802782178,0.596075356,1.660345988,0.575103842,106.8196784,-0.154704005,-0.035202429,-0.018190719,9,171127, 
36.1637264,140.0520276,78.07416534,0.055101834,0.033453636,-0.015972365,0.066411402,0.064462066,0.003693657,-0.016739227,-1.003582716,-0.186253145,-0.034037903,0.023607913,78.33494568,0.004395732,0.01422815,0.802871048,0.595966816,1.609508821,0.567271781,106.835372,-0.086653724,-0.060820729,-0.000887342,9,171130, 
36.1637264,140.0520276,78.07416534,0.054478757,0.033307899,-0.014883928,0.065565863,0.063854139,0.009185726,-0.015617535,-1.003556013,-0.180990309,-0.036159337,0.016956929,78.33413696,0.004200738,0.01382737,0.802953839,0.595866084,1.559377976,0.557641299,106.8499175,-0.124617398,-0.029147282,0.014278814,9,171133, 
36.1637264,140.0520276,77.94121552,0.053629711,0.033032939,-0.012517064,0.064218361,0.062986673,0.006534714,-0.010298128,-1.004623771,-0.16779317,-0.032411776,0.022967229,78.33287811,0.00401792,0.013446294,0.803035676,0.595765769,1.511889712,0.548249709,106.8643835,-0.168158889,-0.058100104,-0.004022233,9,171136, 
36.1637264,140.0520276,77.94121552,0.052868359,0.032634422,-0.010313381,0.062979637,0.062129453,0.006815858,-0.01169893,-1.006255031,-0.165487826,-0.035911895,0.018970091,78.331604,0.0038465,0.013080919,0.803118527,0.59566319,1.466624328,0.538889276,106.8791456,-0.152270302,-0.079703532,0.010071687,9,171139, 
36.1637264,140.0520276,77.94121552,0.051814422,0.032222595,-0.008108848,0.061553094,0.061016637,0.007289951,-0.003835983,-1.00821209,-0.150835276,-0.02274471,0.023079235,78.3303299,0.003678069,0.012739737,0.803201377,0.595560193,1.423788025,0.530916052,106.8939819,-0.210786611,-0.08236596,-0.016296901,9,171142, 
36.16372641,140.0520276,77.94121552,0.051146656,0.031626955,-0.006103477,0.060444165,0.06013522,0.003274921,-0.010434625,-1.008531809,-0.149670988,-0.027496384,0.021046463,78.32904816,0.003513056,0.012420656,0.803285182,0.595454693,1.383220076,0.524143634,106.9091443,-0.133554131,-0.119129181,-0.000642478,9,171145, 
36.16372641,140.0520276,78.02984619,0.050383389,0.031264525,-0.004909534,0.059498403,0.059295501,0.007776976,-0.00846386,-1.006983638,-0.142269254,-0.01346531,0.015643796,78.32806396,0.003345044,0.012117085,0.803363323,0.595356464,1.343869224,0.518728644,106.923277,-0.152651846,-0.072485991,0.009386785,9,171148, 
36.16372641,140.0520276,78.02984619,0.049853742,0.030679148,-0.003702974,0.058654222,0.058537216,0.002014574,-0.011464225,-1.003503561,-0.13991113,-0.012332228,0.013720361,78.32707214,0.00316901,0.011834601,0.803435922,0.595265269,1.305907378,0.515512017,106.9364187,-0.105928883,-0.117076531,0.04405646,9,171151, 
36.16372641,140.0520276,78.02984619,0.049349107,0.030208383,-0.002359739,0.057908973,0.057860874,0.005402734,-0.0121777,-1.002824903,-0.138209626,-0.004953266,0.005753804,78.32608032,0.002987353,0.011562531,0.80350095,0.59518379,1.268514334,0.51354783,106.9481678,-0.100927718,-0.094152018,0.063671157,9,171154, 
36.16372602,140.0520276,78.02984619,-0.017592274,0.007528204,-0.000954208,0.019159135,0.019135359,-6.70E-05,-0.006047063,-1.003229141,-0.126259848,0.00244468,0.012455962,78.3250885,0.002804624,0.011307091,0.803512394,0.595174134,1.232533785,0.512934409,106.9496697,-0.135616153,-0.143935934,0.044881262,9,171157, 
36.16372602,140.0520276,78.02984619,-0.018129125,0.006702371,0.000322862,0.019331094,0.019328398,-0.001224307,-0.008034939,-1.006001234,-0.12540251,-0.001894563,0.010057823,78.32408905,0.002628411,0.011066775,0.803526759,0.595160007,1.198393434,0.512747107,106.9517956,-0.107370317,-0.165166527,0.03464774,9,171160, 
36.16372601,140.0520276,78.02984619,-0.019021973,0.005874079,0.001515307,0.019965881,0.019908296,-0.001661848,0.000796657,-1.007138491,-0.110992119,0.00518423,0.017094867,78.3230896,0.002460868,0.010843816,0.803544283,0.595141113,1.166445929,0.512939839,106.9545899,-0.178569853,-0.165658474,-0.000239201,9,171163, 
36.16372601,140.0520276,78.02984619,-0.019693106,0.004852749,0.002501175,0.020435838,0.0202822,-0.006343992,-0.002495061,-1.008101702,-0.110413656,-0.005754972,0.01567148,78.32208252,0.002308427,0.010633024,0.80356586,0.595116496,1.136652532,0.51256516,106.9581914,-0.134226367,-0.204265743,-0.005935125,9,171166, 
36.163726,140.0520276,78.02984619,-0.020523041,0.003999546,0.003427437,0.021188179,0.020909127,-0.003405976,0.000418982,-1.008724689,-0.102882102,-0.000815663,0.014279336,78.32107544,0.002168007,0.010425925,0.803585112,0.59509474,1.108017176,0.511341251,106.9613681,-0.16598627,-0.170640811,-0.024632461,9,171169, 
36.163726,140.0520276,78.04840088,-0.021266729,0.00294362,0.004057568,0.021849543,0.021469482,-0.008309417,-6.86E-06,-1.010771036,-0.102970734,-0.005037137,0.01382596,78.32012939,0.002032378,0.010226839,0.803602755,0.595074713,1.08044543,0.510226719,106.9642822,-0.148737684,-0.211185098,-0.048722804,9,171172, 
36.163726,140.0520276,78.04840088,-0.021911047,0.002117623,0.004543695,0.022477177,0.02201314,-0.00293115,-0.002597317,-1.011283636,-0.108620159,-0.003739041,0.006194181,78.31918335,0.001895312,0.010019837,0.803614497,0.595062912,1.052041337,0.508716813,106.9660295,-0.128863275,-0.165199637,-0.039807446,9,171175, 
36.16372599,140.0520276,78.04840088,-0.02245583,0.001410246,0.005051521,0.02306016,0.022500069,-0.002320881,-0.003454943,-1.011114597,-0.109073937,-0.000464857,0.008641432,78.3182373,0.001749047,0.009810117,0.803622365,0.595056176,1.022756544,0.507876186,106.9670489,-0.108955994,-0.141476274,-0.049593665,9,171178, 
36.16372599,140.0520276,78.04840088,-0.022566631,0.000929583,0.005488288,0.023243026,0.022585769,0.001324891,-0.012135186,-1.009130478,-0.113212802,-0.008693114,0.000559308,78.31729889,0.001604271,0.009592111,0.80362606,0.595055103,0.992806618,0.506340918,106.9672536,-0.02216018,-0.096132442,-0.013656005,9,171181, 
36.16372599,140.0520276,78.5399704,-0.022614468,0.000660136,0.001511337,0.022674525,0.022624101,0.002877198,-0.014312942,-1.005533576,-0.106875166,-0.005081673,0.000155456,78.31802368,0.001465665,0.009372898,0.803623438,0.595062613,0.963160786,0.50416564,106.9662338,-0.009567313,-0.05388952,-8.59E-05,9,171184, 
36.16372598,140.0520276,78.5399704,-0.022441946,0.000317451,-0.002274765,0.022559173,0.022444191,0.000421398,-0.019363232,-1.00408721,-0.103623122,-0.014896752,-0.008451991,78.31877136,0.001340316,0.009158721,0.803613842,0.595079124,0.934877233,0.501122975,106.9639096,0.034505501,-0.068537168,0.01722078,9,171187, 
36.16372598,140.0520276,78.5399704,-0.022361096,0.000111278,-0.005855135,0.023115225,0.022361373,0.003131915,-0.019269267,-1.002645016,-0.100512885,-0.007408338,-0.011757766,78.3195343,0.001221898,0.008949224,0.803595245,0.595107734,0.907489935,0.497773787,106.9598602,0.016169526,-0.04123427,0.026588455,9,171190, 
36.16372598,140.0520275,78.5399704,-0.022352844,-0.000273455,-0.00927313,0.024201557,0.022354517,0.000672514,-0.016489238,-1.005091786,-0.102765463,-0.008975847,-0.009530055,78.3203125,0.001098155,0.008744997,0.803575754,0.595137239,0.88022469,0.495273484,106.9556762,0.001648828,-0.076946482,0.008923866,9,171193, 
36.16372597,140.0520275,78.37405396,-0.022295527,-0.000427667,-0.011124236,0.024920314,0.022299628,0.006455467,-0.015315292,-1.005508184,-0.111072011,-0.002938326,-0.01078698,78.32054138,0.000962075,0.008533488,0.803557217,0.59516573,0.851448219,0.493409557,106.9516499,0.011463419,-0.030842461,0.019660763,9,171196, 
36.16372597,140.0520275,78.37405396,-0.022244174,-0.00052369,-0.012861572,0.025700147,0.022250338,0.007046412,-0.013092022,-1.008397341,-0.12253619,-0.000998162,-0.00283637,78.32077789,0.000803342,0.008308047,0.803543568,0.595187366,0.819848275,0.492672422,106.9485851,0.010269508,-0.019204989,-0.014761358,9,171199, 
36.16372597,140.0520275,78.37405396,-0.022024978,-0.000401352,-0.014712533,0.026489986,0.022028634,0.011334144,-0.014279123,-1.008183241,-0.133207113,-0.006947896,-0.008538993,78.32102203,0.000632188,0.008057391,0.803532004,0.595206857,0.785080439,0.49135529,106.9458431,0.043839112,0.024467908,-0.003295206,9,171202, 
36.16372596,140.0520275,78.37405396,-0.021802355,-0.00018483,-0.016449487,0.027312313,0.021803138,0.010644666,-0.014889891,-1.008295774,-0.143160105,-0.006682486,-0.006605736,78.32128143,0.000451358,0.007781794,0.80351752,0.595230043,0.747353887,0.489229784,106.9425444,0.044524655,0.043304458,-0.029133901,9,171205, 
36.16372596,140.0520275,78.09889984,-0.021562278,-3.49E-05,-0.015701503,0.0266734,0.021562307,0.009366298,-0.015439677,-1.009113073,-0.148107141,-0.021621907,-0.013584312,78.32061005,0.000274129,0.007480319,0.80349946,0.595258415,0.707486862,0.48501002,106.9385037,0.048014931,0.029979512,-0.035207856,9,171208, 
36.16372596,140.0520275,78.09889984,-0.021184798,0.000149235,-0.015011025,0.025964376,0.021185324,0.007293205,-0.01877939,-1.008195996,-0.156582415,-0.019975884,-0.012302701,78.31993103,0.000100206,0.007155475,0.803477168,0.595292568,0.665690586,0.478893712,106.9336258,0.075496145,0.036833629,-0.044150621,9,171211, 
36.16372596,140.0520275,78.09889984,-0.020796631,0.000194654,-0.014391508,0.025291367,0.020797541,0.004894756,-0.01784493,-1.009143591,-0.160383314,-0.034941815,-0.010563645,78.31925201,-6.95E-05,0.006808392,0.803457201,0.595323741,0.62213994,0.47086171,106.9291677,0.077633627,0.00908374,-0.047834679,9,171214, 
36.16372595,140.0520275,78.09889984,-0.020284276,0.000368468,-0.013815809,0.024545147,0.020287623,0.006523477,-0.018394891,-1.008098841,-0.163537592,-0.036979403,-0.013336662,78.318573,-0.000227218,0.00644167,0.803436279,0.595355988,0.577592191,0.460392781,106.9245356,0.10247118,0.0347628,-0.037251525,9,171217, 
36.16372595,140.0520275,78.27718353,-0.019896615,0.000439916,-0.014869992,0.024843218,0.019901478,0.004140938,-0.016803335,-1.00993669,-0.166591227,-0.044689558,-0.006094175,78.31850433,-0.000379784,0.006061461,0.803418636,0.595383644,0.53216116,0.448518333,106.9205478,0.07753244,0.014289416,-0.06375353,9,171220, 
36.16372595,140.0520275,78.27718353,-0.019598084,0.000567924,-0.016028181,0.025324099,0.019606311,0.007159243,-0.013172645,-1.010632515,-0.162675202,-0.049050968,-0.009965079,78.3184433,-0.000519565,0.005673137,0.803403378,0.595407963,0.486858019,0.434907896,106.9170326,0.059705671,0.025601394,-0.054557428,9,171223, 
36.16372595,140.0520275,78.27718353,-0.019306084,0.00059166,-0.01711278,0.025805468,0.019315148,0.003957688,-0.013351884,-1.012028456,-0.161355406,-0.044030331,-0.002080943,78.31838989,-0.000656085,0.005290565,0.80339092,0.595428169,0.44230996,0.421384986,106.9141011,0.058400005,0.004747175,-0.077664234,9,171226, 
36.16372595,140.0520275,78.27718353,-0.019110909,0.000509746,-0.018285949,0.026454916,0.019117706,0.004923904,-0.010460778,-1.012838364,-0.150146872,-0.050541516,-0.004817931,78.31833649,-0.000781754,0.00491947,0.803381979,0.59544313,0.399562458,0.407641386,106.9119086,0.039035399,-0.016382538,-0.058795206,9,171229, 
36.16372594,140.0520275,78.03500366,-0.018698301,0.000380924,-0.017086467,0.025332172,0.018702181,0.001520234,-0.014676793,-1.011891842,-0.148967922,-0.037198126,-0.004483484,78.31746674,-0.000905083,0.004565899,0.803371191,0.595460415,0.358587373,0.394877557,106.9093954,0.082521811,-0.025764316,-0.059217338,9,171232, 
36.16372594,140.0520275,78.03500366,-0.018345919,8.69E-06,-0.015934847,0.024300044,0.018345921,-0.001382895,-0.012751161,-1.011072159,-0.137891233,-0.042080447,-0.005524215,78.31658936,-0.001027793,0.004230933,0.803359628,0.595478356,0.319367639,0.383324978,106.9067873,0.070476398,-0.074445806,-0.033730626,9,171235, 
36.16372572,140.0520274,78.03500366,-0.017902635,-0.000330303,-0.014700398,0.023167113,0.017905682,-0.001324082,-0.013259815,-1.009549379,-0.132453173,-0.029602215,-0.010582196,78.31570435,-0.001145874,0.003918198,0.803343356,0.595502198,0.28250825,0.372863632,106.903333,0.088656925,-0.067799568,-0.017308004,9,171238, 
36.16372572,140.0520274,78.03500366,-0.017614322,-0.000906989,-0.013427219,0.022167029,0.017637657,-0.005575277,-0.010540279,-1.010153174,-0.127871722,-0.027751381,-0.005700182,78.31482697,-0.00127089,0.003626192,0.803326786,0.595526159,0.24708444,0.364453128,106.899863,0.057661958,-0.115337268,-0.026398242,9,171241, 
36.16372571,140.0520274,78.31221771,-0.01739824,-0.001334164,-0.014819595,0.022893212,0.017449319,-0.000841511,-0.006616702,-1.010770559,-0.121377461,-0.020017426,-0.010677345,78.314888,-0.00139729,0.003352443,0.803309977,0.59555012,0.213247502,0.357413919,106.8963895,0.043216236,-0.085435152,-0.017606147,9,171244, 
36.16372571,140.0520274,78.31221771,-0.017165571,-0.001843156,-0.016127484,0.023625194,0.017264242,-0.003966589,-0.006547206,-1.011283636,-0.120917924,-0.009361667,-0.00421074,78.31495667,-0.001536975,0.003099372,0.803294241,0.595572531,0.18040832,0.353006569,106.8931432,0.046533551,-0.101798251,-0.036038242,9,171247, 
36.16372571,140.0520274,78.31221771,-0.017049545,-0.002271043,-0.017488062,0.024529104,0.017200135,0.000341912,-0.003091694,-1.011561394,-0.116906688,-0.008581182,-0.007733694,78.31503296,-0.001684807,0.00285931,0.803280473,0.595591784,0.148212349,0.350234564,106.8903285,0.023204751,-0.08557719,-0.01847706,9,171250, 
36.16372571,140.0520274,78.31221771,-0.016662007,-0.002665352,-0.018722694,0.025204481,0.016873843,-0.002361129,-0.00737229,-1.009703636,-0.121187747,0.005828645,-0.005814917,78.31510925,-0.0018481,0.002630285,0.803265393,0.595612526,0.115976418,0.349637662,106.8872908,0.077507511,-0.07886181,-0.017484568,9,171253, 
36.16372571,140.0520274,78.38127136,-0.016136652,-0.003151083,-0.020557636,0.026323702,0.016441437,-0.003887398,-0.009130778,-1.009240985,-0.118450768,0.001701638,-0.005785551,78.31542206,-0.002022864,0.002407372,0.803251863,0.595631361,0.083521047,0.350511991,106.8845352,0.10507118,-0.09714628,-0.002467036,9,171256, 
36.16372571,140.0520274,78.38127136,-0.015474328,-0.003475418,-0.022261504,0.027333275,0.015859803,-0.002516977,-0.010937235,-1.00788784,-0.115932547,0.012246305,-0.008375596,78.31574249,-0.002200168,0.002194508,0.803236127,0.59565258,0.051816123,0.352304705,106.8814119,0.132464617,-0.064867064,0.000650745,9,171259, 
36.16372571,140.0520274,78.38127136,-0.014819626,-0.003970735,-0.02389547,0.028396858,0.015342361,-0.006396833,-0.011793133,-1.008835316,-0.114508145,0.007354358,-0.004373993,78.31607819,-0.002380212,0.001989818,0.803221583,0.595672429,0.02067712,0.354905753,106.8784969,0.130940199,-0.09906327,-0.014905546,9,171262, 
36.16372571,140.0520274,78.38127136,-0.01441809,-0.004116796,-0.025554428,0.02962867,0.01499431,0.002122663,-0.006807636,-1.008379936,-0.104735032,0.00898566,-0.008647325,78.31642151,-0.002548647,0.001793944,0.803206503,0.595692456,-0.008858379,0.357038465,106.8755326,0.080307022,-0.029212125,-0.009272438,9,171265, 
36.16372571,140.0520274,78.36271667,-0.01403325,-0.004295763,-0.026961483,0.030697023,0.014676024,-0.000271045,-0.007869655,-1.008791208,-0.104968607,0.008231811,-0.001527011,78.31671143,-0.002710855,0.001608311,0.803193688,0.595709741,-0.037024953,0.359296016,106.8729783,0.07696797,-0.03579326,-0.031905234,9,171268, 
36.1637257,140.0520274,78.36271667,-0.01386771,-0.004196625,-0.028437363,0.031915649,0.01448879,0.007786971,-0.003588696,-1.008623123,-0.095001675,-5.15E-05,-0.004582967,78.31700134,-0.002856736,0.001425737,0.803183734,0.595722973,-0.063793738,0.360258601,106.8709965,0.033107981,0.019827478,-0.017728072,9,171271, 
36.1637257,140.0520274,78.36271667,-0.013437066,-0.004037758,-0.029799474,0.032937318,0.014030618,0.005080657,-0.008415788,-1.007370949,-0.094523758,0.006870282,-0.003341293,78.31729889,-0.002993477,0.001252631,0.80317229,0.595737994,-0.089068086,0.361025118,106.8687527,0.086128801,0.031773556,-0.028112754,9,171274, 
36.1637254,140.0520273,78.36271667,-0.069834948,-0.018928379,-0.031171819,0.078783791,0.072354706,0.003579425,-0.011655621,-1.007730126,-0.090240166,-0.00413699,-0.005593502,78.31760406,-0.00312326,0.001077452,0.803164303,0.595748544,-0.114056058,0.361009454,106.8671578,0.115801401,0.006103285,-0.012856897,10,171277, 
36.1637254,140.0520273,78.99132538,-0.069043845,-0.018776715,-0.038273737,0.08114491,0.071551503,0.003832662,-0.014461903,-1.006659746,-0.087235704,0.006859121,-0.007323662,78.31973267,-0.003247608,0.000909565,0.803153217,0.595763028,-0.138003693,0.360990116,106.8649924,0.15822129,0.030332543,-0.010671146,10,171280, 
36.1637254,140.0520273,78.99132538,-0.068028718,-0.018871453,-0.045141276,0.08379602,0.070597721,-0.001451948,-0.018548906,-1.008147478,-0.090397671,-0.001775667,-0.004852103,78.32189178,-0.003374443,0.000743282,0.803142607,0.595776737,-0.161973222,0.36130831,106.8629304,0.203024313,-0.018947501,-0.016498141,10,171283, 
36.1637254,140.0520273,78.99132538,-0.067164555,-0.018621944,-0.051821176,0.086852107,0.069698309,0.006743255,-0.0146071,-1.006857872,-0.087964863,0.000393842,-0.006883227,78.32408905,-0.003495329,0.000571454,0.803132474,0.595790029,-0.18604676,0.360699809,106.8609404,0.172833741,0.049901925,0.001638789,10,171286, 
36.1637254,140.0520273,78.99132538,-0.066118337,-0.018392671,-0.05820027,0.089984422,0.068628892,0.003303217,-0.018127847,-1.007558227,-0.099337667,-0.004014544,-0.001324731,78.3263092,-0.003620623,0.000388998,0.803124905,0.595799685,-0.211397642,0.359771413,106.8594569,0.209243,0.04585427,-0.024215389,10,171289, 
36.1637254,140.0520273,78.12672424,-0.065343231,-0.01787935,-0.05646367,0.088190447,0.067745177,0.011811686,-0.011605003,-1.005648494,-0.094090037,-0.015589945,-0.006993042,78.3259201,-0.003734431,0.000188488,0.803117275,0.59580934,-0.237625834,0.356552654,106.8579716,0.155021116,0.102664232,0.008088287,10,171292, 
36.1637254,140.0520273,78.12672424,-0.06452278,-0.017338349,-0.054621469,0.086297812,0.066811732,0.008922543,-0.013559139,-1.005609035,-0.10045439,-0.012471939,-0.005110281,78.32552338,-0.00384058,-1.95E-05,0.803106785,0.595822811,-0.264017224,0.352119356,106.8559438,0.164090455,0.108200282,-0.021833424,10,171295, 
36.1637254,140.0520273,78.12672424,-0.063722029,-0.01699039,-0.052982911,0.084595267,0.06594824,0.007113399,-0.013412468,-1.004199266,-0.098685451,-0.027402464,-0.00507619,78.32511902,-0.003938293,-0.000240809,0.803097725,0.595834315,-0.29106487,0.345994306,106.8541989,0.160150364,0.069591746,0.011542112,10,171298, 
36.1637254,140.0520273,78.12672424,-0.062779851,-0.01656675,-0.051230129,0.082706064,0.064928937,0.006599275,-0.01398412,-1.002562046,-0.102407664,-0.018234627,-0.003209393,78.32470703,-0.004031674,-0.000468402,0.803090096,0.595843852,-0.318390333,0.339044313,106.8527371,0.18843466,0.084728032,0.017703556,10,171301, 
36.1637254,140.0520273,78.45134735,-0.061551772,-0.016432682,-0.052516714,0.08256306,0.063707564,0.000336722,-0.018572133,-1.001755238,-0.112937316,-0.029261079,0.002091657,78.32539368,-0.004133807,-0.000711651,0.803087711,0.595846117,-0.347751031,0.331833255,106.8523009,0.245615512,0.026813675,0.038363684,10,171304, 
36.1637254,140.0520273,78.45134735,-0.060325988,-0.016006125,-0.053654552,0.082305721,0.062413306,0.006685209,-0.016051667,-0.999872863,-0.116078533,-0.025752349,0.003544118,78.32608032,-0.00423858,-0.000974188,0.803090334,0.595841408,-0.379064238,0.323551148,106.85285,0.24515745,0.085311428,0.06443581,10,171307, 
36.1637254,140.0520273,78.45134735,-0.058855772,-0.015673155,-0.054618202,0.081809521,0.060906894,0.001825272,-0.020358361,-0.999915123,-0.131871223,-0.029046599,0.005305763,78.3267746,-0.004357673,-0.001255556,0.803095281,0.595833361,-0.413086937,0.315303064,106.853862,0.294042885,0.066594012,0.050454453,10,171310, 
36.1637254,140.0520273,78.45134735,-0.057575271,-0.015230824,-0.055609096,0.081481663,0.05955577,0.006881209,-0.016005283,-0.998704493,-0.133113891,-0.035893653,-0.003344133,78.32746887,-0.00447926,-0.001561616,0.803095043,0.59583205,-0.449555202,0.305595433,106.8539042,0.256101012,0.088466018,0.081534058,10,171313, 
36.1637254,140.0520273,78.65229797,-0.056376301,-0.014886456,-0.058272384,0.082435215,0.058308609,0.002686284,-0.0152882,-1.000197411,-0.141714126,-0.026788512,-0.007885668,78.32884979,-0.004610418,-0.00187595,0.80308497,0.595843911,-0.487443214,0.296195755,106.8520637,0.239793822,0.068873748,0.041190002,10,171316, 
36.1637254,140.0520273,78.65229797,-0.055263236,-0.014885398,-0.061038282,0.083673605,0.057232861,-0.001197821,-0.016250907,-0.998442829,-0.143332988,-0.035566248,-0.0148373,78.33023834,-0.004749486,-0.002200365,0.803066075,0.595867157,-0.526802939,0.286826848,106.8485756,0.250050992,0.004956735,0.086626947,10,171319, 
36.1637254,140.0520273,78.65229797,-0.054002717,-0.014785437,-0.063481227,0.084644957,0.055990201,-0.000779842,-0.015171438,-0.997691631,-0.138192683,-0.02123186,-0.01676213,78.33163452,-0.004891484,-0.002517158,0.803040326,0.595899224,-0.565664019,0.278239234,106.8438114,0.252103686,0.019992141,0.085779116,10,171322, 
36.1637254,140.0520273,78.65229797,-0.05247679,-0.015079299,-0.06583555,0.085530804,0.054600355,-0.009160655,-0.019907219,-0.996357739,-0.137577266,-0.025869241,-0.013711574,78.33304596,-0.005038931,-0.002820944,0.80301553,0.595930278,-0.603699105,0.271039107,106.8392061,0.305185378,-0.058772407,0.109593287,10,171325, 
36.16372541,140.0520273,78.15969849,-0.051105052,-0.015133049,-0.06339971,0.082826679,0.053298551,-0.002883699,-0.015716296,-0.994349718,-0.125125557,-0.014987497,-0.013761447,78.33278656,-0.00518292,-0.003106942,0.802992642,0.595958233,-0.639859991,0.264734876,106.8350202,0.274348319,-0.010750087,0.136736751,10,171328, 
36.16372541,140.0520273,78.15969849,-0.049667478,-0.015376864,-0.060885679,0.0800648,0.051993329,-0.0080768,-0.016561717,-0.995473027,-0.121152975,-0.010874578,-0.007931285,78.33251953,-0.005329748,-0.003365247,0.802974164,0.595980585,-0.673664127,0.260585331,106.8316478,0.287515342,-0.048762787,0.115870424,10,171331, 
36.16372541,140.0520273,78.15969849,-0.04852125,-0.015450234,-0.05853169,0.077582087,0.050921719,-0.000980849,-0.011353808,-0.995088696,-0.113514081,-0.00953889,-0.011993699,78.33223724,-0.0054734,-0.003607826,0.80295682,0.596001208,-0.705803641,0.257217063,106.8285132,0.229245469,-0.014673874,0.139643773,10,171334, 
36.16372541,140.0520273,78.15969849,-0.047580987,-0.015449691,-0.05611309,0.075175276,0.050026426,-0.000743467,-0.00702123,-0.998268783,-0.112801768,0.00468054,-0.008054342,78.3319397,-0.005626441,-0.003830436,0.802939236,0.596022069,-0.736747047,0.256074673,106.8253305,0.188053355,0.000108674,0.084128708,10,171337, 
36.16372541,140.0520273,78.87384796,-0.046502668,-0.015554095,-0.060665943,0.07800503,0.049034967,-0.001132926,-0.008768533,-0.996561885,-0.115259066,-0.00133414,-0.005813354,78.333992,-0.005789045,-0.00404864,0.802926123,0.596036673,-0.767936493,0.256117287,106.8230212,0.215664282,-0.020880882,0.125744462,10,171340, 
36.16372541,140.0520273,78.87384796,-0.045425981,-0.015361828,-0.064852297,0.080655601,0.04795316,0.002969017,-0.006562616,-0.994334102,-0.112001948,0.011202103,-0.002709919,78.33605957,-0.005957626,-0.004261145,0.802917004,0.596045971,-0.799008009,0.257103172,106.8214664,0.215337425,0.038453311,0.130798236,10,171343, 
36.16372541,140.0520273,78.87384796,-0.044002369,-0.015399644,-0.068859786,0.083156645,0.046619283,-0.003628267,-0.012656532,-0.993323922,-0.11609561,0.002178277,0.001799459,78.33815002,-0.006130394,-0.004471816,0.802913368,0.596047461,-0.830194437,0.258606593,106.8210001,0.28472355,-0.007563274,0.141047612,10,171346, 
36.16372541,140.0520273,78.87384796,-0.04270396,-0.015123809,-0.072667144,0.085632188,0.045302956,0.002872816,-0.010366715,-0.990145683,-0.108199738,0.006596461,-0.003268937,78.34025574,-0.006295701,-0.004682106,0.802909315,0.596049547,-0.860836582,0.259448733,106.8204558,0.259682626,0.055167105,0.16829142,10,171349, 
36.16372542,140.0520273,77.8196106,-0.041390408,-0.015013715,-0.066389523,0.079662704,0.04402928,-0.002220232,-0.011735752,-0.992804766,-0.111082569,0.006807099,-0.000464686,78.33889008,-0.006461906,-0.004883936,0.802903593,0.596053958,-0.890762234,0.260948591,106.8195797,0.262711287,0.022018822,0.124533251,10,171352, 
36.16372542,140.0520273,77.8196106,-0.040236756,-0.014726752,-0.060499713,0.074135612,0.042847098,0.004520562,-0.009645887,-0.991327047,-0.109749913,0.001110677,-0.004936684,78.3374939,-0.006623747,-0.005091422,0.802896559,0.596059918,-0.920910967,0.261658297,106.8184764,0.230730042,0.057392422,0.161573261,10,171355, 
36.16372542,140.0520273,77.8196106,-0.039122105,-0.014312753,-0.054589,0.068668427,0.04165806,0.004811421,-0.007567819,-0.994936466,-0.111908063,0.007695086,0.002157668,78.3360672,-0.00678711,-0.005299054,0.802891433,0.596063197,-0.951176241,0.262500585,106.8177485,0.222930491,0.082799725,0.101971686,10,171358, 
36.16372542,140.0520273,77.8196106,-0.037829533,-0.014004542,-0.049135193,0.063572541,0.040338577,0.00343816,-0.009645159,-0.993957043,-0.116017491,-0.005824309,0.002805129,78.33460999,-0.006948233,-0.005518077,0.802892029,0.596058488,-0.982334164,0.262367887,106.8181523,0.258515209,0.06164252,0.129485369,10,171361, 
36.16372542,140.0520273,78.462677,-0.036519088,-0.013489204,-0.049678832,0.063115678,0.038930739,0.005653745,-0.008228691,-0.992700875,-0.111991376,-0.001539328,0.001286614,78.335289,-0.007100142,-0.005744073,0.80289197,0.596054614,-1.013504506,0.260910503,106.8184462,0.262089372,0.103067465,0.125269294,10,171364, 
36.16372542,140.0520273,78.462677,-0.035036918,-0.013271221,-0.050204732,0.062643643,0.03746613,-0.001502907,-0.012266038,-0.993656337,-0.108567663,-0.013910444,-0.002321323,78.33597565,-0.007238348,-0.005968663,0.802888274,0.596055865,-1.043610917,0.258281979,106.818034,0.296433419,0.04359661,0.113595471,10,171367, 
36.16372543,140.0520273,78.462677,-0.033693261,-0.012901723,-0.050751295,0.062268646,0.036078946,0.002539181,-0.011656047,-0.989062428,-0.096793912,-0.012222071,-0.01313646,78.33665466,-0.007354399,-0.006186089,0.80287385,0.596071601,-1.071549545,0.254084987,106.8155771,0.268731147,0.073899403,0.161682725,10,171370, 
36.16372543,140.0520273,78.462677,-0.032432646,-0.01267014,-0.051021203,0.061770318,0.034819663,-0.000594564,-0.011972334,-0.992070615,-0.091540001,-0.011922704,-0.011345437,78.33733368,-0.007459687,-0.006385028,0.80285275,0.596096516,-1.097054538,0.250146919,106.8118244,0.252122849,0.046316709,0.123195544,10,171373, 
36.16372543,140.0520273,78.30088806,-0.031131014,-0.01230337,-0.049943492,0.06012375,0.033474064,0.004517472,-0.012269569,-0.9891783,-0.081167914,-0.016776791,-0.017536882,78.33746338,-0.007548725,-0.006571721,0.80282861,0.59612596,-1.120323658,0.245542869,106.8074603,0.260326505,0.073353954,0.17939882,10,171376, 
36.16372543,140.0520273,78.30088806,-0.029844586,-0.011765592,-0.048598357,0.058231681,0.032080032,0.006026824,-0.011360393,-0.992453277,-0.073509127,-0.008016938,-0.014312441,78.33759308,-0.007628222,-0.006737434,0.802802205,0.596158504,-1.141011543,0.241488108,106.8026582,0.257285655,0.107555658,0.128914654,10,171379, 
36.16372543,140.0520273,78.30088806,-0.028422289,-0.01141311,-0.047518473,0.05653398,0.030628183,0.003462811,-0.013210371,-0.992972732,-0.066601805,-0.014040203,-0.014856385,78.33771515,-0.007699634,-0.006886467,0.802777946,0.596188664,-1.159611101,0.237831248,106.7982237,0.284459323,0.07049641,0.143181324,10,171382, 
36.16372544,140.0520273,78.30088806,-0.027045175,-0.01096574,-0.046379887,0.054797654,0.029183711,0.005072084,-0.010722706,-0.993809462,-0.059810959,-0.004997758,-0.011242134,78.33782196,-0.007763893,-0.007019472,0.802755952,0.596215785,-1.17624642,0.234614385,106.7942244,0.275422037,0.089474209,0.130314156,10,171385, 
36.16372544,140.0520273,78.53585052,-0.025603488,-0.01082425,-0.047502983,0.055038499,0.027797536,-0.001302052,-0.010160496,-0.996496677,-0.057325721,-0.007864274,-0.003473243,78.33872223,-0.007827536,-0.007138457,0.802742541,0.596231699,-1.191546276,0.23231461,106.7918365,0.288337767,0.028298046,0.104242638,10,171388, 
36.16372544,140.0520273,78.53585052,-0.024141282,-0.010527113,-0.048699185,0.05536454,0.026336697,0.002353613,-0.00873062,-0.993673205,-0.054675058,-0.004866577,-0.004240585,78.33963013,-0.007887544,-0.007252121,0.802734256,0.59624058,-1.206106306,0.230053809,106.7904476,0.292441785,0.059427254,0.139629483,10,171391, 
36.16372544,140.0520273,78.53585052,-0.022783063,-0.010251618,-0.049663186,0.055593126,0.024983267,0.001141092,-0.006718508,-0.995896101,-0.056389198,-0.004907522,0.003212277,78.34053802,-0.007949882,-0.007362577,0.802731037,0.596242785,-1.22052832,0.228236502,106.7900151,0.271644264,0.055099107,0.103808567,10,171394, 
36.16372525,140.0520273,78.53585052,-0.068567663,-0.028728783,-0.050752468,0.09001489,0.074342904,0.004219098,-0.006841495,-0.993654013,-0.055243876,-0.012284861,-0.000251446,78.34145355,-0.008010332,-0.007479332,0.802725792,0.596247733,-1.235401575,0.225810789,106.7891981,0.276213109,0.078457654,0.135732874,10,171397, 
36.16372524,140.0520273,78.19886017,-0.067230202,-0.028200697,-0.048496135,0.087561718,0.072905277,0.004833613,-0.006615459,-0.995468736,-0.056588951,-0.009645452,0.000919174,78.34121704,-0.008066156,-0.007599839,0.802718759,0.596254885,-1.250304571,0.222699318,106.7880641,0.267491996,0.105616942,0.095701471,10,171400, 
36.16372524,140.0520273,78.19886017,-0.065818563,-0.027905185,-0.046488106,0.085275592,0.071489738,0.000662748,-0.007917894,-0.996507347,-0.058554426,-0.019684914,0.0010064,78.3409729,-0.008117036,-0.007729171,0.802712679,0.596260667,-1.265681042,0.218532033,106.7871329,0.282328069,0.05910264,0.094369203,10,171403, 
36.16372524,140.0520273,78.19886017,-0.064386293,-0.027542699,-0.044533454,0.082990503,0.070029958,0.001152811,-0.006840971,-0.996180832,-0.057827018,-0.017248096,0.00151509,78.34072113,-0.008161218,-0.007865405,0.802707076,0.596265793,-1.28123449,0.213277796,106.7863075,0.286455035,0.072496645,0.091776147,10,171406, 
36.16372523,140.0520273,78.19886017,-0.062880442,-0.027389262,-0.042637113,0.080759179,0.068586599,-0.00349424,-0.007509895,-0.999198377,-0.058011658,-0.024744323,0.006324275,78.34046173,-0.008199972,-0.00800481,0.802705526,0.596265495,-1.296707226,0.207316188,106.7862677,0.301171333,0.030687444,0.06222225,10,171409, 
36.16372523,140.0520273,78.11538696,-0.06143298,-0.027119774,-0.040155999,0.078243194,0.06715276,-0.000407679,-0.00592518,-0.997263134,-0.051308777,-0.025702566,0.002494044,78.33991241,-0.008225397,-0.008143965,0.802704811,0.596264184,-1.311245854,0.200147305,106.7863952,0.289492249,0.053897299,0.08718203,10,171412, 
36.16372523,140.0520273,78.11538696,-0.060008883,-0.026874365,-0.037617236,0.075751925,0.065751788,-0.001815373,-0.00708573,-1.000340223,-0.049652129,-0.025135573,0.005451825,78.33934784,-0.008244193,-0.008275035,0.802703619,0.596263826,-1.324587739,0.19291981,106.7864069,0.284818798,0.049081653,0.047716297,10,171415, 
36.16372523,140.0520273,78.11538696,-0.05863595,-0.026623547,-0.035340633,0.073457119,0.064397111,0.000174423,-0.006294505,-0.999364793,-0.038017139,-0.025540022,-0.000390842,78.33877563,-0.008253215,-0.008392675,0.802700281,0.596266508,-1.336027038,0.185705914,106.7859969,0.27458632,0.050163843,0.074148297,10,171418, 
36.16372522,140.0520273,78.11538696,-0.057211973,-0.026350366,-0.03299496,0.071107095,0.062988504,-9.24E-05,-0.008362218,-1.000937819,-0.034122586,-0.016639132,-0.002214124,78.33818817,-0.008259109,-0.008488479,0.8026914,0.596277118,-1.345245486,0.179683309,106.7844697,0.28479588,0.054636404,0.056232609,10,171421, 
36.16372497,140.0520272,78.24008179,-0.05583749,-0.026274171,-0.031959627,0.069495144,0.061710269,-0.002055419,-0.007569825,-1.001663089,-0.025737161,-0.016702369,-0.003936861,78.33802032,-0.00826468,-0.008565409,0.802679718,0.596291482,-1.352706497,0.174914068,106.7823945,0.274896443,0.015238728,0.065428354,10,171424, 
36.16372497,140.0520272,78.24008179,-0.054327391,-0.026083369,-0.030901054,0.067725052,0.06026448,-0.000886485,-0.009109909,-1.000167847,-0.02171398,-0.005029117,-0.006958139,78.33784485,-0.008272603,-0.008621286,0.802664697,0.596310914,-1.358392172,0.171791313,106.7796088,0.302019775,0.038159963,0.078816153,10,171427, 
36.16372497,140.0520272,78.24008179,-0.052843161,-0.026032861,-0.029797778,0.066015279,0.058907636,-0.002955313,-0.008440339,-1.000949383,-0.02114632,-0.00442617,-0.004867652,78.33766174,-0.008289413,-0.008663416,0.802648902,0.596331418,-1.363420875,0.170423205,106.7766518,0.296845794,0.010101762,0.076301403,10,171430, 
36.16372496,140.0520272,78.24008179,-0.051341258,-0.025814537,-0.028728623,0.064246781,0.057465773,0.000395752,-0.007384515,-0.997262478,-0.018584879,0.002195881,-0.009222127,78.33747864,-0.008311113,-0.008697043,0.802631259,0.596354246,-1.368002375,0.17008171,106.7733433,0.30038017,0.04366564,0.114676356,10,171433, 
36.16372496,140.0520272,77.75467682,-0.04975912,-0.025563145,-0.022974424,0.060475355,0.055941437,-0.000456723,-0.00952029,-0.99852401,-0.025544945,0.002770833,-0.004884241,78.33578491,-0.008343316,-0.008729719,0.802613616,0.596377194,-1.373213949,0.170770744,106.7700105,0.316427588,0.050278224,0.092537828,10,171436, 
36.16372496,140.0520272,77.75467682,-0.048213698,-0.025165003,-0.017493695,0.057130267,0.05438601,0.00297026,-0.007805129,-0.99617511,-0.028658176,0.000766732,-0.007875635,78.3340683,-0.008381608,-0.008773549,0.802596748,0.596398592,-1.379867855,0.171259486,106.7668735,0.309084356,0.079628557,0.119558185,10,171439, 
36.16372496,140.0520272,77.75467682,-0.046447784,-0.024683621,-0.012035985,0.053958713,0.052599218,0.001489684,-0.011453106,-0.996917546,-0.044225775,0.004134195,-0.001891899,78.33232117,-0.008435228,-0.008835073,0.802581906,0.596416831,-1.389196233,0.171953518,106.764159,0.353182495,0.09627609,0.095490836,10,171442, 
36.16372496,140.0520272,77.75467682,-0.044627376,-0.024156384,-0.006851836,0.051206262,0.050745774,0.003040054,-0.010930527,-0.996507347,-0.051692162,-0.00541484,0.0002203,78.33055115,-0.00849991,-0.008924228,0.802573025,0.596426666,-1.40182052,0.171790302,106.7626303,0.364081681,0.105447054,0.109489232,10,171445, 
36.16372495,140.0520272,78.87075806,-0.042574219,-0.023470754,-0.01212612,0.050104723,0.048615229,0.003176306,-0.014264401,-0.995153904,-0.064718366,-0.003751186,0.000831934,78.33235168,-0.008571991,-0.00903979,0.802565873,0.596433401,-1.417379029,0.170507259,106.7615144,0.410631597,0.13712582,0.108736925,10,171448, 
36.16372495,140.0520272,78.87075806,-0.040571332,-0.022852678,-0.017221108,0.0496472,0.046564771,0.002051248,-0.014499894,-0.995857537,-0.077519968,-0.017349863,0.002124638,78.33417511,-0.008651379,-0.009190141,0.802560091,0.596437871,-1.436636258,0.167522057,106.7607168,0.400577813,0.123614639,0.101113208,10,171451, 
36.16372495,140.0520272,78.87075806,-0.03860952,-0.022149414,-0.022176629,0.049730216,0.044511701,0.003202317,-0.012289481,-0.994878471,-0.082878046,-0.020434165,-0.005816248,78.33602142,-0.008727495,-0.009371217,0.802549183,0.596448541,-1.458497207,0.162123756,106.7590265,0.39236179,0.140653104,0.104175165,10,171454, 
36.16372495,140.0520272,78.87075806,-0.036614805,-0.021551069,-0.02694466,0.050310111,0.042486381,-0.000143636,-0.015215782,-0.997566104,-0.095551938,-0.029086249,-0.004415198,78.33789063,-0.008805207,-0.009579204,0.802533388,0.596465468,-1.482943427,0.155020587,106.7564471,0.398942471,0.119668961,0.068267882,10,171457, 
36.16372495,140.0520272,78.01541901,-0.034792371,-0.020820413,-0.023770213,0.047000231,0.040546254,0.004528379,-0.011722947,-0.998027503,-0.093230225,-0.036477402,-0.00713864,78.33692932,-0.008874528,-0.009809548,0.80251646,0.59648335,-1.508872429,0.145614265,106.7537339,0.364487171,0.146131277,0.074525982,10,171460, 
36.16372494,140.0520272,78.01541901,-0.032787278,-0.020056006,-0.020653125,0.043632563,0.038434997,0.002745748,-0.015403141,-1.001863122,-0.099160343,-0.037674386,0.001311131,78.33596039,-0.008937999,-0.010049851,0.802503943,0.59649533,-1.535315797,0.134999316,106.7518849,0.401019275,0.152881414,0.026636809,10,171463, 
36.16372494,140.0520272,78.01541901,-0.030867502,-0.019243769,-0.017861141,0.040523397,0.03637479,0.005656705,-0.013398086,-1.003264427,-0.093649164,-0.04738364,0.000335219,78.3349762,-0.008990936,-0.01029862,0.80249691,0.596499622,-1.561816478,0.122850888,106.7511437,0.38395524,0.162447318,0.029486604,10,171466, 
36.16372494,140.0520272,78.01541901,-0.028821051,-0.018364238,-0.015138043,0.037377247,0.034174526,0.005181405,-0.015493282,-1.005765676,-0.091437697,-0.042041253,-0.004267592,78.33398438,-0.009033667,-0.01054296,0.802485943,0.596509516,-1.587212465,0.110055498,106.7496339,0.409290969,0.175906494,-0.002029188,10,171469, 
36.16372494,140.0520272,78.6440506,-0.02687908,-0.017731247,-0.018499248,0.037136293,0.032200653,0.002038696,-0.015792117,-1.006933928,-0.087118655,-0.047388572,-0.009107073,78.33511353,-0.009071401,-0.010780859,0.802468002,0.596528947,-1.611675258,0.097221237,106.7467771,0.38839379,0.126598269,-0.001413293,10,171472, 
36.16372494,140.0520272,78.6440506,-0.02520065,-0.017061541,-0.021750974,0.037406868,0.030433024,0.004716713,-0.010189384,-1.007095098,-0.078769974,-0.038189922,-0.018958624,78.33625793,-0.00910336,-0.011003344,0.802439094,0.59656322,-1.634326714,0.084878131,106.7418052,0.335686535,0.133941576,0.001291983,10,171475, 
36.16372494,140.0520272,78.6440506,-0.023471355,-0.016635986,-0.024886006,0.03803911,0.02876909,-0.000116831,-0.011996439,-1.00681746,-0.08173003,-0.03319804,-0.017034175,78.33740997,-0.009145427,-0.01120993,0.802404165,0.596605718,-1.656206883,0.074532646,106.7356417,0.345858634,0.085111476,0.007606886,10,171478, 
36.16372494,140.0520272,78.6440506,-0.021956787,-0.016037306,-0.027889414,0.038950161,0.027189992,0.006433332,-0.005545106,-1.005875587,-0.073246241,-0.025857851,-0.020366445,78.33857727,-0.009195726,-0.011401795,0.802368045,0.596649826,-1.677295419,0.065944944,106.7292273,0.302913427,0.119736075,0.035650723,10,171481, 
36.16372494,140.0520272,78.1978302,-0.020249262,-0.015514404,-0.026505915,0.03678713,0.025509397,0.00293821,-0.007785767,-1.0057621,-0.078896359,-0.015423618,-0.011726225,78.33823395,-0.00926182,-0.011577498,0.80233568,0.596688926,-1.697976629,0.059922609,106.7234954,0.341504782,0.104580507,0.029721819,10,171484, 
36.16372494,140.0520272,78.1978302,-0.018537387,-0.015002679,-0.025188979,0.03468717,0.023847748,0.00397791,-0.00599438,-1.005984068,-0.074025363,-0.016144881,-0.007900562,78.337883,-0.009338417,-0.011746592,0.802312493,0.596715569,-1.71876714,0.05534251,106.7195173,0.342375636,0.102344736,0.041088775,10,171487, 
36.16372494,140.0520272,78.1978302,-0.016635232,-0.014463639,-0.023851164,0.032477774,0.02204377,0.001508621,-0.007071593,-1.007227659,-0.069113463,-0.003396899,-0.004903884,78.33753967,-0.009419882,-0.011896824,0.802294374,0.596735656,-1.738155378,0.052512657,106.7164645,0.380430818,0.107807815,0.012127563,10,171490, 
36.16372493,140.0520271,78.1978302,-0.014736034,-0.014257032,-0.022692766,0.030583906,0.020503992,-0.004266945,-0.008443279,-1.008393764,-0.070187405,-0.005873445,-0.001326643,78.33718872,-0.009508885,-0.012035467,0.802281141,0.596749365,-1.756992978,0.051181362,106.7143105,0.379839361,0.04132136,0.007400312,10,171493, 
36.16372493,140.0520271,78.5152359,-0.0130684,-0.013906056,-0.024543528,0.031089327,0.019083016,-0.00046294,-0.002702652,-1.008699656,-0.065162882,0.005218731,-0.003981347,78.33790588,-0.009603595,-0.012163708,0.802268505,0.59676224,-1.775264582,0.051087269,106.7122556,0.333526015,0.070195392,-0.000289775,10,171496, 
36.16372493,140.0520271,78.5152359,-0.011225849,-0.013752084,-0.026372157,0.03179041,0.017752169,-0.005689998,-0.006199891,-1.008363247,-0.07315363,0.006259535,0.002237071,78.33863068,-0.009712743,-0.012285829,0.802258313,0.596771717,-1.793960666,0.052745757,106.7106527,0.368510783,0.030794844,-0.000222676,10,171499, 
36.16372493,140.0520271,78.5152359,-0.009751685,-0.013325568,-0.028141664,0.032628506,0.016512605,0.002949113,-0.000307155,-1.007072687,-0.068104312,0.004689839,0.000277355,78.3393631,-0.009823619,-0.012411238,0.802251101,0.596776783,-1.813077528,0.054347456,106.7096593,0.313926637,0.091506764,0.021649644,10,171502, 
36.16372493,140.0520271,78.5152359,-0.007922411,-0.012820698,-0.029744986,0.033345151,0.015070995,-0.000264373,-0.005145622,-1.00650239,-0.070148744,0.004530402,0.003556433,78.34009552,-0.009930545,-0.012534909,0.80224514,0.596780598,-1.831763919,0.055707707,106.7088702,0.365855336,0.100973815,0.002787821,10,171505, 
36.16372493,140.0520271,78.22153473,-0.006114684,-0.012243601,-0.0286559,0.031756192,0.013685581,0.001669202,-0.006513596,-1.006037474,-0.060195256,-0.010042035,-0.000649679,78.33983612,-0.010016783,-0.012661646,0.802238703,0.596785188,-1.849317235,0.054954483,106.7080115,0.361545861,0.115419932,0.011120006,10,171508, 
36.16372493,140.0520271,78.22153473,-0.004205547,-0.011571253,-0.027557755,0.030182948,0.012311804,0.000187407,-0.009441173,-1.005831003,-0.049500186,-0.006741826,-0.004533917,78.33957672,-0.010076186,-0.012776183,0.802226543,0.596797884,-1.863913832,0.052549939,106.7060444,0.381827682,0.134469122,-0.012513705,10,171511, 
36.16372493,140.0520271,78.22153473,-0.002181254,-0.011137407,-0.026609223,0.028928368,0.011348996,-0.004187884,-0.014163327,-1.006949425,-0.042414546,-0.020938959,-0.003384943,78.33930969,-0.010111356,-0.012881056,0.802212954,0.59681344,-1.87596388,0.048572308,106.7037439,0.404858828,0.086769253,-0.012945756,10,171514, 
36.16372494,140.0520272,78.22153473,-0.033680871,-0.02412734,-0.025693323,0.048751169,0.041431022,0.001514702,-0.010091913,-1.008549452,-0.027208485,-0.014816687,-0.004426616,78.33903503,-0.010124402,-0.012975006,0.802198529,0.596830487,-1.885496134,0.043304283,106.7012723,0.372966021,0.137333229,-0.029916614,10,171517, 
36.16372493,140.0520272,78.13290405,-0.031653076,-0.023598811,-0.024067439,0.04623919,0.039481909,-0.002332645,-0.01306469,-1.009431839,-0.025834994,-0.01780412,0.003209861,78.33846283,-0.010128331,-0.01304991,0.802189291,0.596841216,-1.892652769,0.038515933,106.6997302,0.405559957,0.105705902,-0.034932233,10,171520, 
36.16372493,140.0520272,78.13290405,-0.029926859,-0.022806386,-0.022521164,0.043851465,0.037626428,0.006856754,-0.006295082,-1.009385109,-0.016194215,-0.017319677,0.00155595,78.337883,-0.010121634,-0.013115562,0.80218482,0.596846104,-1.898231228,0.033397593,106.6990578,0.345244706,0.158485174,-0.012567282,10,171523, 
36.16372493,140.0520272,78.13290405,-0.028092772,-0.022032384,-0.020916129,0.041377702,0.035701957,0.00407243,-0.007380861,-1.010077715,-0.017213494,-0.008887504,0.004508784,78.33730316,-0.010117467,-0.013165898,0.802181125,0.596849799,-1.902574738,0.029562024,106.6985277,0.366815627,0.154800355,-0.035428897,10,171526, 
36.16372493,140.0520272,78.13290405,-0.026374958,-0.021353215,-0.019476643,0.039127201,0.033935206,0.005404697,-0.005420113,-1.008598208,-0.014757151,-0.011771653,0.004015688,78.3367157,-0.010117832,-0.013210624,0.802179337,0.59685123,-1.906712188,0.026532367,106.6983231,0.34356302,0.135833859,0.003489219,10,171529, 
36.16372493,140.0520272,78.23802185,-0.024634875,-0.02069011,-0.018870223,0.037296689,0.032170759,0.003702543,-0.00382476,-1.007670403,-0.013086686,0.007145448,0.005601692,78.33647919,-0.010131214,-0.013239237,0.802178323,0.596851885,-1.910258471,0.025803363,106.6982049,0.348016679,0.132621571,0.000687741,10,171532, 
36.16372493,140.0520272,78.23802185,-0.022687532,-0.020339664,-0.018295465,0.035540823,0.030470084,-0.001404129,-0.007414193,-1.005160809,-0.016978964,0.00573777,0.008286955,78.33623505,-0.010163882,-0.013256959,0.802180111,0.596848488,-1.914122885,0.027601452,106.6986087,0.389467001,0.070089564,0.047599263,10,171535, 
36.16372493,140.0520272,78.23802185,-0.020857759,-0.019813262,-0.017503643,0.033674753,0.028768237,0.002915429,-0.003943368,-1.004813433,-0.014371442,0.020941813,0.0067425,78.33599091,-0.010211361,-0.013265661,0.802182555,0.596844137,-1.918171179,0.031380144,106.6991117,0.36595422,0.105280578,0.051908709,10,171538, 
36.16372493,140.0520272,78.23802185,-0.018786222,-0.01943063,-0.016707279,0.031774277,0.027027236,-0.002127074,-0.008922101,-1.004388332,-0.020904835,0.024841646,0.01155296,78.33573914,-0.01028098,-0.013264006,0.802187264,0.596836805,-1.922781418,0.03790965,106.6999971,0.414307654,0.076525956,0.048333727,10,171541, 
36.16372493,140.0520272,78.34416962,-0.016880877,-0.018818425,-0.016932504,0.030427074,0.025280371,0.00495917,-0.005900041,-1.005168915,-0.019458566,0.027438624,0.009822334,78.33585358,-0.010360957,-0.013262562,0.80219394,0.596826375,-1.928119772,0.045383986,106.7012854,0.381068677,0.122441351,0.054782458,10,171544, 
36.16372493,140.0520272,78.34416962,-0.014967538,-0.018201232,-0.017110435,0.029121797,0.02356506,0.002357302,-0.005618348,-1.008000612,-0.022041343,0.035517409,0.014539727,78.33596802,-0.010452538,-0.013254255,0.802202702,0.596813142,-1.933620382,0.054401257,106.7029472,0.382667094,0.123438582,-0.000595428,10,171547, 
36.16372493,140.0520272,78.34416962,-0.013018042,-0.017649729,-0.017550226,0.028089015,0.02193131,0.002549613,-0.006789069,-1.00929451,-0.024730496,0.023798307,0.01265072,78.33608246,-0.010544447,-0.01325391,0.80221355,0.596796989,-1.93987511,0.062911303,106.7050275,0.389899433,0.110300124,0.001855753,10,171550, 
36.16372492,140.0520272,78.34416962,-0.011099264,-0.016981373,-0.017963199,0.027096812,0.020286958,0.002181891,-0.005486764,-1.011027813,-0.023450386,0.029630248,0.01338675,78.33620453,-0.010631485,-0.013259384,0.802223563,0.59678179,-1.946331471,0.070573392,106.7069764,0.383755356,0.133671761,-0.044338979,10,171553, 
36.16372492,140.0520272,78.45855713,-0.008833423,-0.016562805,-0.019656496,0.027179656,0.018771144,-0.004580825,-0.012512881,-1.01013875,-0.029301403,0.012407918,0.012299828,78.33670807,-0.010710506,-0.013277942,0.802233517,0.59676677,-1.953442111,0.07660356,106.7089314,0.453168124,0.083713792,-0.033346571,10,171556, 
36.16372492,140.0520272,78.45855713,-0.006634839,-0.015930211,-0.021247331,0.027372281,0.017256672,-0.000789504,-0.011024053,-1.009775996,-0.022718815,0.009353254,0.007287031,78.33721924,-0.010768545,-0.013310973,0.80223906,0.596757472,-1.960448901,0.079701315,106.7101079,0.439717412,0.126519173,-0.03828907,10,171559, 
36.16372492,140.0520272,78.45855713,-0.004219525,-0.015477611,-0.02281676,0.027892031,0.016042469,-0.007397158,-0.016357843,-1.010010004,-0.025234116,-0.001164301,0.008916684,78.33773804,-0.010809883,-0.013350093,0.802242339,0.596751392,-1.966873525,0.080839758,106.7108672,0.48306331,0.090519771,-0.057709649,10,171562, 
36.16372492,140.0520272,78.45855713,-0.001979902,-0.014763311,-0.024438374,0.028620088,0.014895481,0.000447554,-0.014233831,-1.009917259,-0.019448893,-0.009686709,0.002015546,78.33826447,-0.010829602,-0.013400207,0.802241981,0.596750379,-1.972830662,0.079226669,106.7109595,0.447925478,0.1428601,-0.040691763,10,171565, 
36.16372492,140.0520272,78.49565887,0.000187412,-0.014029296,-0.026276508,0.029787769,0.014030548,-0.000439852,-0.01279963,-1.011958599,-0.014313038,-0.005442972,0.005882666,78.33892059,-0.010836835,-0.013442604,0.802239716,0.596752465,-1.977224088,0.076986352,106.7106483,0.433462858,0.146803126,-0.077655397,10,171568, 
36.16372492,140.0520272,78.49565887,0.00227984,-0.013301419,-0.028246189,0.031304514,0.013495385,0.003032577,-0.012633835,-1.011367559,-0.011838435,-0.016522517,0.002910572,78.33958435,-0.010831552,-0.013482452,0.802238166,0.596753538,-1.980527317,0.073772114,106.710497,0.418486029,0.145575583,-0.041029207,10,171571, 
36.16372492,140.0520272,78.49565887,0.004239336,-0.012469899,-0.029981321,0.032746755,0.013170814,0.004672098,-0.008860796,-1.011939287,-0.004498967,-0.003771678,0.005966117,78.34025574,-0.010820624,-0.013511213,0.802236915,0.596754789,-1.982424653,0.070797318,106.7103465,0.39189893,0.166303962,-0.058497824,10,171574, 
36.16372492,140.0520272,78.49565887,0.006461985,-0.01190358,-0.031753741,0.034521769,0.013544463,-0.000458076,-0.01352887,-1.011315584,-0.005875433,-0.008075031,0.007849951,78.34093475,-0.010813804,-0.013527628,0.802239358,0.596751332,-1.983467134,0.06905626,106.7108611,0.444529444,0.113263808,-0.035311975,10,171577, 
36.16372492,140.0520272,78.05458069,0.008498631,-0.011051502,-0.02925976,0.032411356,0.013941393,0.007339498,-0.00980437,-1.009264708,-0.001947103,0.005835768,0.007027004,78.34011841,-0.010814734,-0.013534302,0.802242517,0.596746981,-1.984143966,0.068695992,106.7114831,0.407329619,0.17041558,-0.004984982,10,171580, 
36.16372493,140.0520272,78.05458069,0.010646209,-0.010361303,-0.026696816,0.030551896,0.01485592,0.003336966,-0.011468166,-1.009976625,-0.007363449,0.013359987,0.011808686,78.33929443,-0.010838334,-0.013526423,0.80224818,0.596738935,-1.985033383,0.071423894,106.7125626,0.429516554,0.138039857,-0.013501376,10,171583, 
36.16372493,140.0520272,78.05458069,0.012794338,-0.009523299,-0.024256594,0.029030513,0.015949555,0.008885332,-0.011151408,-1.007481813,-0.010266423,0.01909728,0.007755076,78.3384552,-0.010881453,-0.013516986,0.8022542,0.596730351,-1.987114199,0.076053928,106.7136821,0.429626256,0.16760087,0.036997981,10,171586, 
36.16372493,140.0520272,78.05458069,0.014877521,-0.008738793,-0.021642014,0.027678221,0.017254192,0.006217734,-0.008828213,-1.008915901,-0.015099151,0.033249974,0.013022031,78.33760834,-0.010950306,-0.013500453,0.802260697,0.596720695,-1.990302842,0.083537366,106.7148823,0.416636229,0.156901389,0.001752205,10,171589, 
36.16372493,140.0520272,78.60591888,0.017125912,-0.008145522,-0.024406668,0.030908443,0.018964345,0.003524954,-0.011243536,-1.006038785,-0.023115508,0.026889261,0.008545786,78.33863068,-0.011036571,-0.013490982,0.802267492,0.596710265,-1.995331521,0.092140199,106.7161528,0.449677855,0.118654251,0.049421825,10,171592, 
36.16372493,140.0520272,78.60591888,0.019365519,-0.007583156,-0.026844881,0.033958434,0.020797298,0.000554669,-0.009597961,-1.005764723,-0.025149411,0.039017946,0.011132177,78.33966064,-0.011136085,-0.01348731,0.802272499,0.596701622,-2.001800021,0.101559656,106.7171203,0.447921246,0.112473235,0.026299782,10,171595, 
36.16372493,140.0520272,78.60591888,0.021803841,-0.007342454,-0.029313125,0.037263634,0.023006936,-0.006764805,-0.012788039,-1.004907131,-0.03170713,0.030227736,0.010621086,78.34070587,-0.01124539,-0.013489737,0.802279055,0.596690953,-2.009498292,0.111467526,106.7183693,0.4876647,0.048140083,0.034787484,10,171598, 
36.16372493,140.0520272,78.60591888,0.024196208,-0.007057507,-0.031655956,0.04046436,0.025204461,-0.005674236,-0.011310669,-1.002759695,-0.031909749,0.032603018,0.01092186,78.3417511,-0.0113533,-0.013503726,0.802285194,0.596680105,-2.018164667,0.120456447,106.7196201,0.478473276,0.056989163,0.053390667,10,171601, 
36.16372494,140.0520272,78.53275299,0.026593938,-0.006941993,-0.033145029,0.043058353,0.027485066,-0.010851298,-0.01103895,-1.005500078,-0.033270158,0.026396919,0.017116439,78.34255981,-0.011458644,-0.013522048,0.80229634,0.5966627,-2.027052521,0.12893011,106.7218238,0.479546487,0.023102589,0.006404404,10,171604, 
36.16372494,140.0520272,78.53275299,0.028981343,-0.00658958,-0.034812253,0.045773723,0.02972105,-0.005000785,-0.011597919,-1.003299356,-0.031919651,0.017600466,0.012024855,78.34337616,-0.011548967,-0.013551551,0.8023085,0.596643984,-2.035940722,0.135262069,106.7242541,0.477480948,0.070482254,0.038497094,10,171607, 
36.16372475,140.0520271,78.53275299,0.031232014,-0.006209545,-0.0362642,0.04826064,0.031843322,-0.005983373,-0.01001398,-1.005901575,-0.027160631,0.014175842,0.016145522,78.3441925,-0.011622462,-0.013584055,0.802320182,0.596626163,-2.043953787,0.139840064,106.726601,0.450134605,0.076006994,-0.011858333,10,171610, 
36.16372476,140.0520271,78.53275299,0.033451922,-0.005808067,-0.037914366,0.050894635,0.033952389,-0.004296861,-0.010805431,-1.00404191,-0.018825449,-0.003036698,0.009278134,78.34501648,-0.011665449,-0.013618857,0.802330375,0.596610904,-2.050091763,0.141450367,106.7286651,0.443980873,0.080295846,0.016457468,10,171613, 
36.16372476,140.0520271,78.70793915,0.035367131,-0.005140137,-0.041000515,0.054390231,0.035738704,0.000774569,-0.007586782,-1.003027916,-0.009085839,-0.001588541,0.006126619,78.34644318,-0.011678975,-0.013647431,0.802333474,0.596605599,-2.053644066,0.140752857,106.729373,0.383042276,0.133586138,0.005727522,10,171616, 
36.16372477,140.0520271,78.70793915,0.037170887,-0.00469413,-0.044038724,0.057819711,0.037466114,-0.001855432,-0.006483206,-1.001758814,0.00108717,-0.014434884,0.002278951,78.3478775,-0.011666102,-0.01366464,0.802332103,0.596607566,-2.054346293,0.1383879,106.7291399,0.360751659,0.089201555,0.027398631,10,171619, 
36.16372477,140.0520271,78.70793915,0.038869038,-0.003930923,-0.046870142,0.06101692,0.039067305,0.005575655,-0.00585266,-0.998649955,0.013118073,-0.009863095,-0.000777917,78.34931946,-0.011628252,-0.013665848,0.802325845,0.596616507,-2.051870452,0.134802968,106.7279568,0.339630127,0.152641326,0.064416394,10,171622, 
36.16372478,140.0520271,78.70793915,0.040473051,-0.003254492,-0.049421314,0.06396191,0.04060369,0.004588731,-0.004301338,-0.999634027,0.02527545,-0.010089233,0.006927458,78.35077667,-0.011576802,-0.013639495,0.802323639,0.596621275,-2.045928346,0.131864007,106.7274269,0.320802361,0.135286435,0.05597081,10,171625, 
36.16372478,140.0520271,78.37405396,0.042148106,-0.002455596,-0.048817221,0.064541567,0.042219578,0.009119455,-0.004893657,-0.997089386,0.035429075,-0.010456012,0.007810169,78.35109711,-0.011508263,-0.013591081,0.802327991,0.596617699,-2.036787663,0.128883743,106.7281169,0.335010976,0.159778923,0.107354239,10,171628, 
36.16372479,140.0520271,78.37405396,0.043743655,-0.001694843,-0.047964994,0.06493859,0.043776476,0.007355232,-0.002315234,-1.000271797,0.044467188,-0.005715167,0.016284661,78.35141754,-0.011429957,-0.013520026,0.802339733,0.596605122,-2.024895105,0.126577043,106.7301307,0.31910935,0.152150244,0.061235163,10,171631, 
36.1637248,140.0520271,78.37405396,0.045410872,-0.001126975,-0.047351558,0.065616975,0.045424854,0.004441647,-0.002292961,-0.999899983,0.050620578,-0.013471139,0.015073702,78.35173035,-0.011337419,-0.01343588,0.802357078,0.596585393,-2.010824438,0.123874583,106.7331944,0.333443344,0.113573998,0.078101709,10,171634, 
36.16372474,140.0520271,78.37405396,0.011410661,-0.01852569,-0.046661891,0.051485303,0.021757858,0.006413896,0.000279615,-1.002070189,0.053025763,-0.006054801,0.015969064,78.35204315,-0.011236309,-0.013337906,0.802372336,0.596568882,-1.994896459,0.121320944,106.735818,0.300521195,0.14171955,0.039210867,10,171637, 
36.16372474,140.0520271,78.73576355,0.013003416,-0.017976545,-0.049538206,0.054279636,0.022186595,0.003424654,-0.001241595,-1.002636194,0.054406505,-0.012416848,0.016315524,78.35358429,-0.011133443,-0.013235313,0.802388668,0.59655118,-1.978423392,0.118923972,106.7386218,0.318550408,0.109828651,0.040876102,10,171640, 
36.16372474,140.0520271,78.73576355,0.014713526,-0.01705578,-0.052307505,0.056951405,0.022525263,0.010164065,-0.004737045,-1.001195908,0.049892295,-0.004995248,0.010147861,78.35512543,-0.011033869,-0.013135135,0.802400529,0.596539319,-1.962398671,0.116649477,106.7405794,0.342022419,0.184152663,0.05849921,10,171643, 
36.16372474,140.0520271,78.73576355,0.016522929,-0.016249217,-0.054893054,0.059584324,0.023174215,0.007163786,-0.006692317,-1.00095892,0.045190152,-0.006418553,0.013669703,78.35668182,-0.010947138,-0.013039768,0.802410185,0.59653002,-1.947695064,0.115219847,106.7421342,0.361880153,0.161312327,0.05971336,10,171646, 
36.16372474,140.0520271,78.73576355,0.018482842,-0.015348691,-0.057379816,0.062206439,0.02402494,0.009318039,-0.008581033,-0.999657273,0.041555393,-0.008263445,0.007006387,78.35824585,-0.010863292,-0.012955244,0.802417397,0.596523762,-1.934186489,0.113306353,106.7432488,0.391982496,0.180104971,0.085813545,10,171649, 
36.16372474,140.0520271,77.68253326,0.020453826,-0.014582217,-0.049851201,0.055822418,0.025119714,0.004586681,-0.008565705,-1.000239372,0.040434875,-0.009883109,0.010319447,78.35655975,-0.01077946,-0.012878118,0.802421927,0.596520722,-1.921360097,0.110880093,106.7438915,0.394196838,0.153294921,0.060214963,10,171652, 
36.16372474,140.0520271,77.68253326,0.022427,-0.013997488,-0.042672243,0.050197812,0.026436717,0.001362685,-0.008360654,-1.000553131,0.044423416,-0.020178845,0.005296567,78.35483551,-0.01068151,-0.012807028,0.802425623,0.596519232,-1.908123342,0.106739643,106.744363,0.394634485,0.116945863,0.060901508,10,171655, 
36.16372474,140.0520271,77.68253326,0.024377435,-0.013401352,-0.035704933,0.045262543,0.02781826,-0.000189031,-0.009140728,-1.00131321,0.045770366,-0.017795634,0.006164604,78.35308075,-0.010571575,-0.012736544,0.802426279,0.596521795,-1.894123551,0.101446049,106.7442727,0.390087426,0.11922729,0.035430685,10,171658, 
36.16372475,140.0520271,77.68253326,0.026311174,-0.013020154,-0.029073365,0.041316617,0.029356469,-0.003408758,-0.0088491,-1.003150702,0.048715461,-0.026324965,0.008734614,78.35128784,-0.010452326,-0.012666292,0.802429557,0.596520841,-1.879508002,0.09528851,106.7446985,0.38674739,0.0762394,0.027483534,10,171661, 
36.16372475,140.0520271,78.5647049,0.028421372,-0.012442481,-0.030887976,0.043779639,0.03102563,-0.000547058,-0.011863709,-1.00166893,0.049738333,-0.020871613,0.008423904,78.35215759,-0.010327071,-0.01259433,0.802434802,0.596517682,-1.864323974,0.088700837,106.7454675,0.422040105,0.115534738,0.046018019,10,171664, 
36.16372475,140.0520271,78.5647049,0.030605391,-0.012030266,-0.032547396,0.046268242,0.032884909,-0.003874816,-0.013165214,-1.002211332,0.049591765,-0.024170436,0.014662036,78.35303497,-0.010203413,-0.012519806,0.80244422,0.596508563,-1.849013336,0.082448457,106.7470629,0.436803997,0.082443148,0.044999145,10,171667, 
36.16372475,140.0520271,78.5647049,0.032850288,-0.01153769,-0.034151249,0.04877056,0.03481752,-0.001693535,-0.013626083,-1.001157522,0.050433911,-0.022608295,0.008736361,78.35391235,-0.010077497,-0.012445879,0.802453935,0.596499085,-1.833603455,0.07594805,106.748714,0.448979557,0.098515585,0.066232085,10,171670, 
36.16372476,140.0520271,78.5647049,0.035082504,-0.011168484,-0.03559031,0.051207297,0.036817348,-0.005203876,-0.014111538,-1.000801802,0.049196441,-0.02021621,0.011264517,78.35479736,-0.009955788,-0.012369446,0.802461088,0.596493125,-1.818251003,0.069997501,106.7498559,0.446442962,0.073841341,0.058642559,10,171673, 
36.16372477,140.0520271,78.17825317,0.037142329,-0.010883447,-0.033416294,0.051133655,0.038704031,-0.004582376,-0.010885739,-1.00135541,0.051681936,-0.022484869,0.004831203,78.35437012,-0.009833208,-0.01229172,0.80246532,0.596491098,-1.802720678,0.064046036,106.7504347,0.411965281,0.057007518,0.065077931,10,171676, 
36.16372477,140.0520271,78.17825317,0.039189644,-0.01057329,-0.031268265,0.051237946,0.040590919,-0.005229299,-0.011489656,-1.002084374,0.043668877,-0.012119341,0.005705633,78.35393524,-0.009722785,-0.012213573,0.8024652,0.596494734,-1.787983197,0.059228353,106.7501756,0.409463078,0.062031478,0.046996459,10,171679, 
36.16372478,140.0520271,78.17825317,0.041129291,-0.010385007,-0.02926695,0.051536601,0.042420124,-0.005332631,-0.008291276,-1.003788471,0.036557291,-0.013681946,0.009349745,78.35349274,-0.009632536,-0.01214398,0.802468061,0.596493721,-1.775411682,0.05569093,106.7505257,0.387928903,0.037657037,0.046368048,10,171682, 
36.16372478,140.0520271,78.17825317,0.043202676,-0.009950384,-0.027323358,0.05207732,0.04433375,-0.001386744,-0.010131003,-1.003573775,0.024234042,-0.000713917,0.008380398,78.3530426,-0.009568257,-0.012085347,0.802472472,0.596489966,-1.76562377,0.053797831,106.7512066,0.427815199,0.091705933,0.049057491,10,171685, 
36.16372479,140.0520271,78.38745117,0.045393497,-0.009544034,-0.027364921,0.053856263,0.046385969,-0.00221668,-0.011140015,-1.003920794,0.012178661,-0.001671561,0.014601193,78.35329437,-0.009534283,-0.012042153,0.8024804,0.596480846,-1.759327192,0.053647362,106.7525926,0.438164175,0.081270486,0.050948918,10,171688, 
36.16372479,140.0520271,78.38745117,0.047679827,-0.008842085,-0.02738712,0.055692034,0.048492766,0.003244521,-0.013127357,-1.004109859,0.00225997,0.004032294,0.008072017,78.35354614,-0.009521445,-0.012017464,0.802487612,0.596471846,-1.756178096,0.054174631,106.7539069,0.457266659,0.14038977,0.05245617,10,171691, 
36.1637248,140.0520271,78.38745117,0.050023392,-0.008190289,-0.027392186,0.057617293,0.050689452,0.000378869,-0.015564268,-1.003557205,-0.005143692,0.006278516,0.011787746,78.35379791,-0.009529456,-0.012004257,0.80249238,0.596465528,-1.755510585,0.055827857,106.7547891,0.468712956,0.130359173,0.042606302,10,171694, 
36.1637248,140.0520271,78.38745117,0.052191913,-0.007486112,-0.027437128,0.059437645,0.052726063,0.00354539,-0.013576625,-1.004202604,-0.010675926,0.002077532,0.004726126,78.35404968,-0.009545099,-0.012005523,0.802494466,0.596462429,-1.756696315,0.057186446,106.7551954,0.433704138,0.140835166,0.045988865,10,171697, 
36.16372481,140.0520271,78.48123169,0.054345921,-0.006810337,-0.028328281,0.061663209,0.054770976,0.000993476,-0.013635701,-1.004761219,-0.016258655,0.004431768,0.003177677,78.35462189,-0.009567047,-0.012019418,0.802489996,0.596467793,-1.759475391,0.05824278,106.7543787,0.430801392,0.135154992,0.019698024,10,171700, 
36.16372481,140.0520271,78.48123169,0.056316175,-0.006212413,-0.029314412,0.063792165,0.056657794,0.001027184,-0.010676894,-1.006718636,-0.014112692,-0.007724626,-0.001189851,78.35519409,-0.009581639,-0.01204414,0.802481174,0.596478939,-1.762747727,0.057869817,106.7527545,0.394050717,0.119584545,0.003815774,10,171703, 
36.16372482,140.0520271,78.48123169,0.058159873,-0.005446304,-0.030344475,0.06582568,0.058414322,0.003477795,-0.009632202,-1.007734299,-0.012090515,-0.008620147,-0.005760461,78.3557663,-0.009579896,-0.01207452,0.802465916,0.596498907,-1.765424161,0.055588615,106.7499085,0.368738979,0.153221935,-0.021912139,10,171706, 
36.16372483,140.0520271,78.48123169,0.060003467,-0.004777845,-0.031468548,0.067922849,0.060193387,0.001055644,-0.011275561,-1.007299423,-0.009623698,-0.021469973,-0.001352806,78.35634613,-0.009561016,-0.012110648,0.802450776,0.596518874,-1.767457472,0.051338736,106.7471014,0.368719339,0.133692086,-0.022270389,10,171709, 
36.16372483,140.0520271,78.76049805,0.061830144,-0.003802482,-0.035158046,0.071228602,0.061946958,0.007060037,-0.01064058,-1.00765264,-0.002844682,-0.025745096,-0.004735999,78.35787964,-0.009518082,-0.01215026,0.802436709,0.59653765,-1.768166273,0.044641581,106.7445157,0.365335763,0.195072353,-0.025197018,10,171712, 
36.16372484,140.0520271,78.76049805,0.063810274,-0.003027014,-0.038747653,0.074714754,0.063882031,0.001266702,-0.013552166,-1.004538774,0.000739171,-0.031850088,0.003180292,78.35942078,-0.00945708,-0.012187162,0.802426338,0.596551776,-1.767389911,0.036478672,106.7426336,0.396024823,0.155093491,-0.002790842,10,171715, 
36.16372484,140.0520271,78.76049805,0.065683618,-0.002238698,-0.042114317,0.078057448,0.065721758,0.003558556,-0.011108587,-1.00513041,0.007097557,-0.041422326,0.002352912,78.36097717,-0.009373048,-0.012225702,0.802421689,0.59655875,-1.765188717,0.026102528,106.7418348,0.374669552,0.157662988,0.00602074,10,171718, 
36.16372485,140.0520271,78.76049805,0.06765008,-0.001605615,-0.045329444,0.081448571,0.067669131,-0.001704956,-0.011427375,-1.004885197,0.007254219,-0.038289674,0.004531642,78.36254883,-0.009277719,-0.012262492,0.802417994,0.596564233,-1.76205432,0.014810309,106.7412522,0.393292248,0.126616776,-0.006326336,10,171721, 
36.16372485,140.0520271,78.08343506,0.069450408,-0.001141846,-0.042205155,0.081276922,0.069459794,-0.002227852,-0.008009328,-1.006879926,0.00806025,-0.048053689,0.00667731,78.36183167,-0.00917509,-0.012303218,0.802417815,0.596565366,-1.758782266,0.002587692,106.7413238,0.360065311,0.092753515,-0.007730912,10,171724, 
36.16372486,140.0520271,78.08343506,0.071186393,-0.000440057,-0.039185263,0.08125996,0.071187754,0.00215594,-0.006255901,-1.009193182,0.006349082,-0.038943917,0.004308661,78.36109924,-0.009072476,-0.012345343,0.802417338,0.596566677,-1.755640102,-0.009729751,106.7413594,0.347195923,0.140357703,-0.03418136,10,171727, 
36.16372486,140.0520271,78.08343506,0.073044479,8.02E-05,-0.036391877,0.081608033,0.073044523,-0.001240924,-0.008666318,-1.00886488,0.000982747,-0.042656124,0.009991102,78.36035156,-0.008980606,-0.012390506,0.802419186,0.596564651,-1.753512049,-0.021259857,106.7418484,0.371616364,0.104048878,-0.019688241,10,171730, 
36.16372487,140.0520271,78.08343506,0.074893087,0.000881471,-0.033617552,0.082096841,0.074898274,0.005191387,-0.008215648,-1.008979082,-0.006470365,-0.033293929,0.005684623,78.35959625,-0.008903984,-0.012444299,0.802421749,0.596561193,-1.75322062,-0.031975091,106.7425055,0.369722605,0.160256535,-0.009420093,10,171733, 
36.16372488,140.0520271,78.74092102,0.07706432,0.00135047,-0.036995444,0.085495007,0.077076152,-0.003720318,-0.012183429,-1.005544662,-0.016768955,-0.026036654,0.010046961,78.3610611,-0.008857272,-0.012503506,0.802423894,0.596557736,-1.75547229,-0.040310638,106.7430985,0.434245467,0.093800008,0.022145621,10,171736, 
36.16372488,140.0520271,78.74092102,0.079263695,0.001838963,-0.040109113,0.088853002,0.079285024,-0.001247877,-0.012266955,-1.006283522,-0.028870786,-0.022307323,0.00518854,78.36253357,-0.008838277,-0.012576994,0.802425206,0.596554697,-1.760932767,-0.047075208,106.7435736,0.439877003,0.097698748,0.037972026,10,171739, 
36.16372489,140.0520271,78.74092102,0.08152464,0.002155926,-0.043040585,0.092213919,0.081553142,-0.006666294,-0.011532092,-1.004491091,-0.041711703,-0.006869211,0.005710156,78.3640213,-0.008857042,-0.012661256,0.802422643,0.596556067,-1.769965534,-0.051114523,106.7433384,0.452189177,0.063392505,0.039130561,10,171742, 
36.16372489,140.0520271,78.74092102,0.083809331,0.002402786,-0.045866277,0.095569308,0.083843768,-0.006254958,-0.011872363,-1.005045295,-0.054785445,-0.008746339,0.003762296,78.36551666,-0.008908711,-0.012761413,0.80241847,0.59655875,-1.78271012,-0.053218402,106.7428448,0.456936121,0.049371738,0.052517265,10,171745, 
36.1637249,140.0520271,77.97831726,0.085957974,0.002995498,-0.041435815,0.095470797,0.086010153,-9.42E-05,-0.009896709,-1.005650282,-0.064170636,0.008307653,0.000453803,78.36442566,-0.008992271,-0.012872837,0.802409828,0.596566737,-1.798670965,-0.053172762,106.741526,0.429729939,0.118542209,0.032446887,10,171748, 
36.1637249,140.0520271,77.97831726,0.08829397,0.003464799,-0.037235241,0.095886877,0.088361926,-0.003034182,-0.014161742,-1.004709959,-0.075033277,0.003950282,0.001835274,78.3633194,-0.009103635,-0.012995121,0.802399278,0.596576631,-1.817531876,-0.051318134,106.7398739,0.467198968,0.093860045,0.048412934,10,171751, 
36.16372491,140.0520271,77.97831726,0.090527758,0.004326839,-0.033080608,0.096479651,0.090631101,0.005044247,-0.013474953,-1.004530668,-0.078683242,0.008456848,-0.00424754,78.36219025,-0.009225897,-0.0131319,0.802384973,0.596591055,-1.838470802,-0.049463731,106.7375487,0.446756065,0.172407687,0.0486889,10,171754, 
36.16372486,140.0520272,77.97831726,0.072379291,-0.01055567,-0.029046627,0.078701274,0.073144952,-0.002500287,-0.016614797,-1.002568483,-0.083930269,0.00550786,-0.001595361,78.36105347,-0.009360705,-0.013283271,0.802368879,0.596607089,-1.861609957,-0.047458766,106.734951,0.478796721,0.130321324,0.044246409,10,171757, 
36.16372486,140.0520272,78.17103577,0.074724481,-0.00975924,-0.026945505,0.080031563,0.075359079,0.001601783,-0.016735945,-1.002435923,-0.084909521,-0.004646436,-0.007377592,78.36054993,-0.009486966,-0.013450689,0.802350581,0.596626103,-1.885640072,-0.047344588,106.7319591,0.469038904,0.159285694,0.055713933,10,171760, 
36.16372487,140.0520272,78.17103577,0.076969981,-0.008995492,-0.024845421,0.081379308,0.077493851,-0.001601557,-0.014217923,-1.002460241,-0.081118345,-0.00353702,-0.004808523,78.36003876,-0.009602007,-0.013622059,0.802329898,0.596648097,-1.909266583,-0.048540721,106.7285516,0.449100375,0.152749315,0.024370003,10,171763, 
36.16372487,140.0520272,78.17103577,0.07915023,-0.008242194,-0.022958469,0.082823812,0.079578217,-0.000129696,-0.014591429,-1.002562881,-0.084928341,-0.019444268,-0.002251463,78.35951996,-0.009702314,-0.013804421,0.802313268,0.596664727,-1.932896416,-0.0518316,106.7259504,0.436048388,0.150659397,0.036455363,10,171766, 
36.16372488,140.0520272,78.17103577,0.081098393,-0.007164877,-0.021065876,0.084095516,0.081414279,0.006083668,-0.009036857,-1.004162312,-0.0844405,-0.013784608,0.001417272,78.35899353,-0.009794931,-0.01399768,0.802301288,0.59667486,-1.95700291,-0.056559859,106.7242909,0.389632583,0.21546331,0.006340653,10,171769, 
36.16372489,140.0520272,78.11950684,0.08327204,-0.006206557,-0.018897537,0.085614665,0.083503018,0.003312239,-0.011769684,-1.003405094,-0.087002575,-0.025707934,0.005548692,78.358284,-0.009882952,-0.014197591,0.802295029,0.596677005,-1.98140758,-0.062146751,106.7237742,0.434730113,0.191664279,0.024603881,10,171772, 
36.16372489,140.0520272,78.11950684,0.085216373,-0.004999157,-0.016704498,0.086981964,0.085362883,0.010199435,-0.008195651,-1.004238725,-0.08687754,-0.024084382,0.002361081,78.35756683,-0.009962481,-0.014407614,0.802289546,0.596677959,-2.00616157,-0.069203137,106.7234484,0.388866186,0.24147974,0.023360625,10,171775, 
36.1637249,140.0520272,78.11950684,0.087149039,-0.004078113,-0.014582265,0.088454669,0.087244404,0.003331989,-0.007055233,-1.001955032,-0.086016677,-0.0242518,0.003267965,78.35684204,-0.010042699,-0.014615591,0.802282393,0.596681297,-2.030773992,-0.076062344,106.7227886,0.386533856,0.184208661,0.033069313,10,171778, 
36.1637249,140.0520272,78.11950684,0.089131311,-0.003121488,-0.012474209,0.090054095,0.089185953,0.006269099,-0.009065079,-1.001834393,-0.087385148,-0.028896609,-0.002394398,78.35610962,-0.010118386,-0.014827721,0.802271605,0.596689165,-2.055458374,-0.083634308,106.7214794,0.396453679,0.191325158,0.060814843,10,171781, 
36.16372491,140.0520272,78.74298096,0.090922624,-0.002247665,-0.016086897,0.092362134,0.090950401,0.003737145,-0.004444178,-1.000458241,-0.083531946,-0.01544686,0.001891815,78.35748291,-0.010201029,-0.015030809,0.802259803,0.596698701,-2.079786357,-0.08995314,106.7199276,0.358263344,0.174764365,0.053942926,10,171784, 
36.16372491,140.0520272,78.74298096,0.092984989,-0.001455855,-0.019610289,0.095041524,0.092996386,0.003380325,-0.00934378,-0.998415291,-0.094715752,-0.019126561,0.004050153,78.35887909,-0.01029906,-0.015233873,0.802252412,0.596701741,-2.105165654,-0.094839845,106.7192523,0.412472188,0.158361852,0.10430675,10,171787, 
36.16372492,140.0520272,78.74298096,0.094914451,-0.000364859,-0.022762336,0.097606404,0.094915153,0.009685517,-0.004589323,-0.99850446,-0.095179938,-0.001040434,0.01007518,78.3602829,-0.010420385,-0.015437766,0.802250683,0.596696675,-2.132215335,-0.097620916,106.7196741,0.385893196,0.218198881,0.100642949,10,171790, 
36.16372492,140.0520272,78.74298096,0.097153991,0.000523131,-0.025816733,0.100526989,0.0971554,0.004738398,-0.00824362,-0.997376919,-0.102072015,-0.001548468,0.015969656,78.36169434,-0.010565058,-0.015635768,0.802257478,0.596679866,-2.160321667,-0.097821233,106.7217124,0.447906584,0.177598119,0.121716388,10,171793, 
36.16372479,140.0520271,78.61107635,0.099279806,0.001653437,-0.027426738,0.103011843,0.099293573,0.010929753,-0.007090477,-0.998096406,-0.107133314,0.006819327,0.0131882,78.3626709,-0.010726593,-0.015839849,0.802266181,0.596659899,-2.190140742,-0.096878054,106.7241514,0.425163418,0.226061404,0.121666789,10,171796, 
36.16372479,140.0520271,78.61107635,0.10137821,0.002527948,-0.028966771,0.105465662,0.101409723,0.00396187,-0.005009943,-0.996962488,-0.102926299,0.01070755,0.017354876,78.36365509,-0.010901085,-0.016035624,0.802275717,0.59663868,-2.220082437,-0.094171107,106.726728,0.419680148,0.174902678,0.110344306,10,171799, 
36.1637248,140.0520271,78.61107635,0.103648521,0.003437363,-0.030495275,0.108096222,0.103705503,0.005179091,-0.010466672,-0.997528851,-0.10829822,0.00509861,0.009158301,78.36463928,-0.011074644,-0.016233901,0.802282155,0.596621454,-2.250189901,-0.091731091,106.7287293,0.454062164,0.181882605,0.120635718,10,171802, 
36.16372481,140.0520271,78.61107635,0.105638258,0.004266117,-0.031906351,0.110433947,0.105724365,0.002283996,-0.004409554,-0.996424139,-0.098822221,0.010619647,0.009747813,78.3656311,-0.011244901,-0.016428227,0.802282989,0.596611798,-2.279707531,-0.089344858,106.7296506,0.397947162,0.165750831,0.099419139,10,171805, 
36.16372481,140.0520271,78.31221771,0.108024985,0.00495439,-0.03057996,0.112379167,0.108138537,-0.001872156,-0.012516538,-0.998273373,-0.102862388,-0.003182089,0.004403274,78.36560822,-0.011402708,-0.016623342,0.802280545,0.596606791,-2.308445657,-0.088170051,106.7299427,0.477345794,0.137654454,0.092501238,10,171808, 
36.16372482,140.0520271,78.31221771,0.110140741,0.005853694,-0.029313561,0.114125078,0.110296185,0.002189373,-0.007217843,-1.000264406,-0.094310649,-0.000579288,0.001345347,78.3655777,-0.011545746,-0.0168224,0.802271903,0.59661001,-2.336535787,-0.088646305,106.7290869,0.423151582,0.17986089,0.055465404,10,171811, 
36.16372482,140.0520271,78.31221771,0.112419233,0.006577365,-0.028256709,0.116102486,0.112611481,-0.002655634,-0.009368772,-1.002741575,-0.092666261,-0.012959995,0.001468832,78.36553955,-0.011671317,-0.017018564,0.802261472,0.596616149,-2.363164826,-0.090539097,106.7278685,0.455699414,0.144733995,0.027926762,10,171814, 
36.16372483,140.0520271,78.31221771,0.114629075,0.007585447,-0.027361032,0.118093141,0.11487978,0.003699927,-0.009307176,-1.004473209,-0.091289878,-0.014341069,-0.002997989,78.3655014,-0.011780742,-0.017222019,0.802247882,0.596626282,-2.389360093,-0.094427394,106.7261089,0.441969931,0.201616406,0.015848834,10,171817, 
36.16372483,140.0520271,78.35756683,0.116779394,0.008440323,-0.026970137,0.120150132,0.117084013,-0.000176327,-0.005629019,-1.003737807,-0.08294113,-0.01447634,0.004628369,78.36560822,-0.011881467,-0.017416807,0.802236974,0.596633375,-2.414163313,-0.098513973,106.724817,0.43006283,0.170975149,0.010886993,10,171820, 
36.16372484,140.0520271,78.35756683,0.119235203,0.009327155,-0.026612703,0.12252455,0.119599454,0.001282559,-0.011814527,-1.00384903,-0.090634204,-0.020150291,0.005436407,78.36571503,-0.011976065,-0.017615139,0.802232385,0.596631885,-2.438874637,-0.103380732,106.724765,0.491160184,0.177366406,0.03900706,10,171823, 
36.16372484,140.0520271,78.35756683,0.121460862,0.010154799,-0.026123241,0.124652656,0.121884622,9.52E-06,-0.003734726,-1.002139807,-0.085732497,-0.012464646,0.01341874,78.36581421,-0.012074958,-0.017814638,0.802234113,0.596621454,-2.463988569,-0.107905477,106.7259625,0.445129663,0.165528759,0.040199906,10,171826, 
36.16372485,140.0520271,78.35756683,0.124041237,0.010827288,-0.02563617,0.127124631,0.124512885,-0.003429582,-0.008935576,-1.00383842,-0.097063191,-0.020058841,0.012241215,78.36591339,-0.012178892,-0.01802041,0.802240849,0.596604168,-2.490025164,-0.11237393,106.7281346,0.516074717,0.134497806,0.043296084,10,171829, 
36.16372486,140.0520271,77.36716461,0.126424804,0.011685017,-0.01593088,0.127959227,0.126963659,0.000578919,-0.005343325,-1.00381875,-0.099689163,-0.008310636,0.00978413,78.36363983,-0.012297322,-0.018237129,0.802244425,0.59659034,-2.518059839,-0.116268899,106.7297642,0.476711869,0.17154555,0.035654616,10,171832, 
36.16372486,140.0520271,77.36716461,0.128888413,0.012467282,-0.006562085,0.12965615,0.129489985,-0.000721919,-0.006452726,-1.004817367,-0.106120907,-0.008292394,0.008791728,78.36131287,-0.012434231,-0.018454209,0.80224508,0.596580088,-2.547391053,-0.118500691,106.7308314,0.492720723,0.156453297,0.03428255,10,171835, 
36.16372487,140.0520272,77.36716461,0.131394461,0.013493499,0.00251047,0.132109354,0.132085498,0.005248548,-0.009387951,-1.004026413,-0.118457101,0.002966884,0.006111686,78.35894775,-0.012596361,-0.01868175,0.802242219,0.596573293,-2.579409424,-0.119140937,106.7313082,0.501211762,0.205243632,0.057562478,10,171838, 
36.16372487,140.0520272,77.36716461,0.133845806,0.014433447,0.011418614,0.135105177,0.134621782,0.003386868,-0.005285195,-1.002405405,-0.115759782,0.012570657,0.016672544,78.35653687,-0.012786792,-0.018903272,0.802244723,0.596559048,-2.61281049,-0.116743892,106.7327698,0.490270495,0.18799004,0.067523189,10,171841, 
36.16372488,140.0520272,78.84087372,0.136628687,0.015336871,0.006398325,0.137635593,0.137486791,0.002949907,-0.010801684,-1.003103256,-0.128819481,0.016858308,0.014950179,78.35813141,-0.012999089,-0.019124679,0.802253187,0.596535921,-2.647698179,-0.112299483,106.7354087,0.556576192,0.180684537,0.084609658,10,171844, 
36.16372489,140.0520272,78.84087372,0.139041856,0.016104296,0.001631244,0.139980881,0.139971376,0.000836728,-0.001708963,-1.001727343,-0.123288281,0.029418617,0.022831302,78.35974121,-0.013234046,-0.019340968,0.802265704,0.596506894,-2.683665337,-0.105401277,106.7388085,0.482629269,0.153485149,0.07740593,10,171847, 
36.16372489,140.0520272,78.84087372,0.141745329,0.016784279,-0.003009106,0.142767311,0.142735596,-0.001520929,-0.007092889,-1.005844593,-0.129543185,0.028449634,0.021453975,78.36136627,-0.013481328,-0.019549225,0.802282929,0.596471608,-2.719736691,-0.096797581,106.7430613,0.540698647,0.135996521,0.048358195,10,171850, 
36.1637249,140.0520272,78.84087372,0.144346759,0.017599806,-0.007636654,0.145616134,0.145415749,0.00080941,-0.006203595,-1.005782127,-0.124969915,0.038489744,0.021133322,78.36301422,-0.013738917,-0.019752422,0.802298367,0.59643805,-2.756047578,-0.086904604,106.7469966,0.520284891,0.163105428,0.037868954,10,171853, 
36.1637249,140.0520272,77.92884827,0.147000402,0.018395055,-0.00368126,0.148192604,0.148146874,3.11E-05,-0.007402965,-1.007619739,-0.11790628,0.032543719,0.021121517,78.36157227,-0.013991934,-0.0199409,0.802313924,0.596405149,-2.790690536,-0.076424751,106.7508582,0.530728638,0.159049556,0.017769493,10,171856, 
36.16372491,140.0520272,77.92884827,0.149733424,0.019396408,5.51E-05,0.150984509,0.150984499,0.003046437,-0.011714019,-1.007303476,-0.118155807,0.033196114,0.012171319,78.36011505,-0.01423434,-0.020126637,0.802322865,0.596381128,-2.824354993,-0.066762228,106.7534636,0.546602249,0.200270057,0.015294038,10,171859, 
36.16372492,140.0520272,77.92884827,0.152205676,0.020303424,0.00366414,0.1535976,0.153553889,0.001134902,-0.005812084,-1.006833792,-0.105510719,0.025830297,0.014050421,78.35865021,-0.014460596,-0.020305065,0.802326858,0.596364141,-2.856242297,-0.05810803,106.7551023,0.494452178,0.181403279,-6.07E-05,10,171862, 
36.16372492,140.0520272,77.92884827,0.154858664,0.021212623,0.007084964,0.156465261,0.15630477,0.000365758,-0.009448656,-1.008836627,-0.109248497,0.019224031,0.004251846,78.3571701,-0.014666003,-0.020485116,0.802325487,0.596354961,-2.886852272,-0.051508056,106.7557022,0.5305987,0.18183966,-0.016657092,10,171865, 
36.16372493,140.0520272,78.6162262,0.157005459,0.021977581,0.003922157,0.158584714,0.158536205,-0.0007193,0.001742106,-1.008317471,-0.094862349,0.016759085,0.006686761,78.35800934,-0.014854186,-0.020661376,0.802318871,0.596352994,-2.915936002,-0.046258301,106.7553102,0.436071783,0.157400742,-0.031948753,10,171868, 
